foodItem,path,image,skip_food.thisRepN,skip_food.thisTrialN,skip_food.thisN,skip_food.thisIndex,food_rating_loop.thisRepN,food_rating_loop.thisTrialN,food_rating_loop.thisN,food_rating_loop.thisIndex,start_food_rat_key.started,start_food_rat_text.started,start_food_rat_key.keys,start_food_rat_key.rt,foodImage.started,next_button.started,food_slider.response,food_slider.rt,next_button.numClicks,next_button.timesOn,next_button.timesOff,participant,group,extra,practice,rainbow,dorate,date,expName,psychopyVersion,frameRate,
avacado.jpg,stimuli/food/,stimuli/food/avacado.jpg,0,0,0,0,0,0,0,4,41.20237369998358,41.20237369998358,right,0.3033564999932423,41.585668899992015,43.23619379999582,7.46875,2.305981299956329,1,[1.6845920999767259],[1.6845968999550678],666,food,0,1,BR,1,2023-07-17_14h19.11.061,crystals,2022.2.4,60.085609964439804,
mac & cheese.jpg,stimuli/food/,stimuli/food/mac & cheese.jpg,0,0,0,0,0,1,1,39,,,,,45.4522654999746,45.918543500010855,9.34375,0.4488132999977097,2,"[1.6845920999767259, 0.8337809999939054]","[1.6845968999550678, 0.8337862000335008]",666,food,0,1,BR,1,2023-07-17_14h19.11.061,crystals,2022.2.4,60.085609964439804,
grilled cheese.jpg,stimuli/food/,stimuli/food/grilled cheese.jpg,0,0,0,0,0,2,2,31,,,,,47.285754399956204,48.28527779999422,1.9825000000000002,0.9835105999954976,3,"[1.6845920999767259, 0.8337809999939054, 0.7335125000099652]","[1.6845968999550678, 0.8337862000335008, 0.7335207000141963]",666,food,0,1,BR,1,2023-07-17_14h19.11.061,crystals,2022.2.4,60.085609964439804,
peaches.jpg,stimuli/food/,stimuli/food/peaches.jpg,0,0,0,0,0,3,3,46,,,,,49.552235799958,50.05232439999236,3.535,4.1861383999930695,4,"[1.6845920999767259, 0.8337809999939054, 0.7335125000099652, 4.218718499992974]","[1.6845968999550678, 0.8337862000335008, 0.7335207000141963, 4.218725099985022]",666,food,0,1,BR,1,2023-07-17_14h19.11.061,crystals,2022.2.4,60.085609964439804,
rigatoni and sauce.jpg,stimuli/food/,stimuli/food/rigatoni and sauce.jpg,0,0,0,0,0,4,4,54,,,,,54.81936009996571,55.30247799999779,4.46125,0.4666696999920532,5,"[1.6845920999767259, 0.8337809999939054, 0.7335125000099652, 4.218718499992974, 0.46825400000670925]","[1.6845968999550678, 0.8337862000335008, 0.7335207000141963, 4.218725099985022, 0.46826570003759116]",666,food,0,1,BR,1,2023-07-17_14h19.11.061,crystals,2022.2.4,60.085609964439804,
baby cheese.jpg,stimuli/food/,stimuli/food/baby cheese.jpg,0,0,0,0,0,5,5,5,,,,,56.30239999998594,56.736684900010005,5.545,0.41747680003754795,6,"[1.6845920999767259, 0.8337809999939054, 0.7335125000099652, 4.218718499992974, 0.46825400000670925, 0.7669633000041358]","[1.6845968999550678, 0.8337862000335008, 0.7335207000141963, 4.218725099985022, 0.46826570003759116, 0.7669688999885693]",666,food,0,1,BR,1,2023-07-17_14h19.11.061,crystals,2022.2.4,60.085609964439804,
cookies.jpg,stimuli/food/,stimuli/food/cookies.jpg,0,0,0,0,0,6,6,19,,,,,58.03566629998386,58.553524899994954,6.4225,0.5008944000001065,7,"[1.6845920999767259, 0.8337809999939054, 0.7335125000099652, 4.218718499992974, 0.46825400000670925, 0.7669633000041358, 0.6345606000395492]","[1.6845968999550678, 0.8337862000335008, 0.7335207000141963, 4.218725099985022, 0.46826570003759116, 0.7669688999885693, 0.6345662000239827]",666,food,0,1,BR,1,2023-07-17_14h19.11.061,crystals,2022.2.4,60.085609964439804,
orange slices.jpg,stimuli/food/,stimuli/food/orange slices.jpg,0,0,0,0,0,7,7,44,,,,,59.73595729999943,60.33555889996933,7.55125,0.5835553000215441,8,"[1.6845920999767259, 0.8337809999939054, 0.7335125000099652, 4.218718499992974, 0.46825400000670925, 0.7669633000041358, 0.6345606000395492, 0.5502096999553032]","[1.6845968999550678, 0.8337862000335008, 0.7335207000141963, 4.218725099985022, 0.46826570003759116, 0.7669688999885693, 0.6345662000239827, 0.5502160000032745]",666,food,0,1,BR,1,2023-07-17_14h19.11.061,crystals,2022.2.4,60.085609964439804,
hotdog w must.jpg,stimuli/food/,stimuli/food/hotdog w must.jpg,0,0,0,0,0,8,8,34,,,,,61.419862399983685,61.769863199966494,8.55625,0.3322506999829784,9,"[1.6845920999767259, 0.8337809999939054, 0.7335125000099652, 4.218718499992974, 0.46825400000670925, 0.7669633000041358, 0.6345606000395492, 0.5502096999553032, 0.5015247000264935]","[1.6845968999550678, 0.8337862000335008, 0.7335207000141963, 4.218725099985022, 0.46826570003759116, 0.7669688999885693, 0.6345662000239827, 0.5502160000032745, 0.5015534000121988]",666,food,0,1,BR,1,2023-07-17_14h19.11.061,crystals,2022.2.4,60.085609964439804,
rice cakes.jpg,stimuli/food/,stimuli/food/rice cakes.jpg,0,0,0,0,0,9,9,53,,,,,62.81910289998632,63.25322769995546,9.39625,0.4162297999719158,10,"[1.6845920999767259, 0.8337809999939054, 0.7335125000099652, 4.218718499992974, 0.46825400000670925, 0.7669633000041358, 0.6345606000395492, 0.5502096999553032, 0.5015247000264935, 0.5334193000453524]","[1.6845968999550678, 0.8337862000335008, 0.7335207000141963, 4.218725099985022, 0.46826570003759116, 0.7669688999885693, 0.6345662000239827, 0.5502160000032745, 0.5015534000121988, 0.5334255000343546]",666,food,0,1,BR,1,2023-07-17_14h19.11.061,crystals,2022.2.4,60.085609964439804,
mini muffins.jpg,stimuli/food/,stimuli/food/mini muffins.jpg,0,0,0,0,0,10,10,41,,,,,64.31960330001311,64.86967260000529,8.338750000000001,0.5331822000443935,11,"[1.6845920999767259, 0.8337809999939054, 0.7335125000099652, 4.218718499992974, 0.46825400000670925, 0.7669633000041358, 0.6345606000395492, 0.5502096999553032, 0.5015247000264935, 0.5334193000453524, 0.7168563000159338]","[1.6845968999550678, 0.8337862000335008, 0.7335207000141963, 4.218725099985022, 0.46826570003759116, 0.7669688999885693, 0.6345662000239827, 0.5502160000032745, 0.5015534000121988, 0.5334255000343546, 0.7168627000064589]",666,food,0,1,BR,1,2023-07-17_14h19.11.061,crystals,2022.2.4,60.085609964439804,
reeses.jpg,stimuli/food/,stimuli/food/reeses.jpg,0,0,0,0,0,11,11,52,,,,,66.1194886000012,67.55311699997401,7.3525,1.4169097999692895,12,"[1.6845920999767259, 0.8337809999939054, 0.7335125000099652, 4.218718499992974, 0.46825400000670925, 0.7669633000041358, 0.6345606000395492, 0.5502096999553032, 0.5015247000264935, 0.5334193000453524, 0.7168563000159338, 0.6876487000263296]","[1.6845968999550678, 0.8337862000335008, 0.7335207000141963, 4.218725099985022, 0.46826570003759116, 0.7669688999885693, 0.6345662000239827, 0.5502160000032745, 0.5015534000121988, 0.5334255000343546, 0.7168627000064589, 0.6876641000271775]",666,food,0,1,BR,1,2023-07-17_14h19.11.061,crystals,2022.2.4,60.085609964439804,
broccoli cauliflower.jpg,stimuli/food/,stimuli/food/broccoli cauliflower.jpg,0,0,0,0,0,12,12,11,,,,,68.7694913999876,69.05362889997195,6.4825,0.26619990001199767,13,"[1.6845920999767259, 0.8337809999939054, 0.7335125000099652, 4.218718499992974, 0.46825400000670925, 0.7669633000041358, 0.6345606000395492, 0.5502096999553032, 0.5015247000264935, 0.5334193000453524, 0.7168563000159338, 0.6876487000263296, 0.5503682999988087]","[1.6845968999550678, 0.8337862000335008, 0.7335207000141963, 4.218725099985022, 0.46826570003759116, 0.7669688999885693, 0.6345662000239827, 0.5502160000032745, 0.5015534000121988, 0.5334255000343546, 0.7168627000064589, 0.6876641000271775, 0.5503752999939024]",666,food,0,1,BR,1,2023-07-17_14h19.11.061,crystals,2022.2.4,60.085609964439804,
Grapes.jpg,stimuli/food/,stimuli/food/Grapes.jpg,0,0,0,0,0,13,13,29,,,,,70.13627359998645,70.5699081000057,5.36875,0.4173463999759406,14,"[1.6845920999767259, 0.8337809999939054, 0.7335125000099652, 4.218718499992974, 0.46825400000670925, 0.7669633000041358, 0.6345606000395492, 0.5502096999553032, 0.5015247000264935, 0.5334193000453524, 0.7168563000159338, 0.6876487000263296, 0.5503682999988087, 0.5345272999838926]","[1.6845968999550678, 0.8337862000335008, 0.7335207000141963, 4.218725099985022, 0.46826570003759116, 0.7669688999885693, 0.6345662000239827, 0.5502160000032745, 0.5015534000121988, 0.5334255000343546, 0.7168627000064589, 0.6876641000271775, 0.5503752999939024, 0.5345355999888852]",666,food,0,1,BR,1,2023-07-17_14h19.11.061,crystals,2022.2.4,60.085609964439804,
baguette oil.jpg,stimuli/food/,stimuli/food/baguette oil.jpg,0,0,0,0,0,14,14,8,,,,,71.63609280000674,72.06980900000781,4.3149999999999995,0.4161706999875605,15,"[1.6845920999767259, 0.8337809999939054, 0.7335125000099652, 4.218718499992974, 0.46825400000670925, 0.7669633000041358, 0.6345606000395492, 0.5502096999553032, 0.5015247000264935, 0.5334193000453524, 0.7168563000159338, 0.6876487000263296, 0.5503682999988087, 0.5345272999838926, 0.5345247999648564]","[1.6845968999550678, 0.8337862000335008, 0.7335207000141963, 4.218725099985022, 0.46826570003759116, 0.7669688999885693, 0.6345662000239827, 0.5502160000032745, 0.5015534000121988, 0.5334255000343546, 0.7168627000064589, 0.6876641000271775, 0.5503752999939024, 0.5345355999888852, 0.5345320000196807]",666,food,0,1,BR,1,2023-07-17_14h19.11.061,crystals,2022.2.4,60.085609964439804,
soup with spoon.jpg,stimuli/food/,stimuli/food/soup with spoon.jpg,0,0,0,0,0,15,15,61,,,,,73.15303449996281,73.48662109998986,3.36625,0.31731210002908483,16,"[1.6845920999767259, 0.8337809999939054, 0.7335125000099652, 4.218718499992974, 0.46825400000670925, 0.7669633000041358, 0.6345606000395492, 0.5502096999553032, 0.5015247000264935, 0.5334193000453524, 0.7168563000159338, 0.6876487000263296, 0.5503682999988087, 0.5345272999838926, 0.5345247999648564, 0.8503420000197366]","[1.6845968999550678, 0.8337862000335008, 0.7335207000141963, 4.218725099985022, 0.46826570003759116, 0.7669688999885693, 0.6345662000239827, 0.5502160000032745, 0.5015534000121988, 0.5334255000343546, 0.7168627000064589, 0.6876641000271775, 0.5503752999939024, 0.5345355999888852, 0.5345320000196807, 0.8503499000216834]",666,food,0,1,BR,1,2023-07-17_14h19.11.061,crystals,2022.2.4,60.085609964439804,
grilled chicken strips.jpg,stimuli/food/,stimuli/food/grilled chicken strips.jpg,0,0,0,0,0,16,16,32,,,,,74.86943409999367,75.44163999997545,2.42875,0.5170785000082105,17,"[1.6845920999767259, 0.8337809999939054, 0.7335125000099652, 4.218718499992974, 0.46825400000670925, 0.7669633000041358, 0.6345606000395492, 0.5502096999553032, 0.5015247000264935, 0.5334193000453524, 0.7168563000159338, 0.6876487000263296, 0.5503682999988087, 0.5345272999838926, 0.5345247999648564, 0.8503420000197366, 0.4698708000360057]","[1.6845968999550678, 0.8337862000335008, 0.7335207000141963, 4.218725099985022, 0.46826570003759116, 0.7669688999885693, 0.6345662000239827, 0.5502160000032745, 0.5015534000121988, 0.5334255000343546, 0.7168627000064589, 0.6876641000271775, 0.5503752999939024, 0.5345355999888852, 0.5345320000196807, 0.8503499000216834, 0.46987550001358613]",666,food,0,1,BR,1,2023-07-17_14h19.11.061,crystals,2022.2.4,60.085609964439804,
eggs.jpg,stimuli/food/,stimuli/food/eggs.jpg,0,0,0,0,0,17,17,24,,,,,76.41921249998268,76.92041979997884,1.15375,0.4831726999836974,18,"[1.6845920999767259, 0.8337809999939054, 0.7335125000099652, 4.218718499992974, 0.46825400000670925, 0.7669633000041358, 0.6345606000395492, 0.5502096999553032, 0.5015247000264935, 0.5334193000453524, 0.7168563000159338, 0.6876487000263296, 0.5503682999988087, 0.5345272999838926, 0.5345247999648564, 0.8503420000197366, 0.4698708000360057, 0.5337919000303373]","[1.6845968999550678, 0.8337862000335008, 0.7335207000141963, 4.218725099985022, 0.46826570003759116, 0.7669688999885693, 0.6345662000239827, 0.5502160000032745, 0.5015534000121988, 0.5334255000343546, 0.7168627000064589, 0.6876641000271775, 0.5503752999939024, 0.5345355999888852, 0.5345320000196807, 0.8503499000216834, 0.46987550001358613, 0.5337988000246696]",666,food,0,1,BR,1,2023-07-17_14h19.11.061,crystals,2022.2.4,60.085609964439804,
chicken nuggets2.jpg,stimuli/food/,stimuli/food/chicken nuggets2.jpg,0,0,0,0,0,18,18,18,,,,,78.00436749996152,78.55425350001315,2.335,0.5327630999963731,19,"[1.6845920999767259, 0.8337809999939054, 0.7335125000099652, 4.218718499992974, 0.46825400000670925, 0.7669633000041358, 0.6345606000395492, 0.5502096999553032, 0.5015247000264935, 0.5334193000453524, 0.7168563000159338, 0.6876487000263296, 0.5503682999988087, 0.5345272999838926, 0.5345247999648564, 0.8503420000197366, 0.4698708000360057, 0.5337919000303373, 0.6480420000152662]","[1.6845968999550678, 0.8337862000335008, 0.7335207000141963, 4.218725099985022, 0.46826570003759116, 0.7669688999885693, 0.6345662000239827, 0.5502160000032745, 0.5015534000121988, 0.5334255000343546, 0.7168627000064589, 0.6876641000271775, 0.5503752999939024, 0.5345355999888852, 0.5345320000196807, 0.8503499000216834, 0.46987550001358613, 0.5337988000246696, 0.6480473999981768]",666,food,0,1,BR,1,2023-07-17_14h19.11.061,crystals,2022.2.4,60.085609964439804,
Cheese nachos.jpg,stimuli/food/,stimuli/food/Cheese nachos.jpg,0,0,0,0,0,19,19,15,,,,,80.38992320001125,80.85386839997955,3.3287500000000003,1.0854015999939293,20,"[1.6845920999767259, 0.8337809999939054, 0.7335125000099652, 4.218718499992974, 0.46825400000670925, 0.7669633000041358, 0.6345606000395492, 0.5502096999553032, 0.5015247000264935, 0.5334193000453524, 0.7168563000159338, 0.6876487000263296, 0.5503682999988087, 0.5345272999838926, 0.5345247999648564, 0.8503420000197366, 0.4698708000360057, 0.5337919000303373, 0.6480420000152662, 0.5011134000378661]","[1.6845968999550678, 0.8337862000335008, 0.7335207000141963, 4.218725099985022, 0.46826570003759116, 0.7669688999885693, 0.6345662000239827, 0.5502160000032745, 0.5015534000121988, 0.5334255000343546, 0.7168627000064589, 0.6876641000271775, 0.5503752999939024, 0.5345355999888852, 0.5345320000196807, 0.8503499000216834, 0.46987550001358613, 0.5337988000246696, 0.6480473999981768, 0.5011200000299141]",666,food,0,1,BR,1,2023-07-17_14h19.11.061,crystals,2022.2.4,60.085609964439804,
PB.jpg,stimuli/food/,stimuli/food/PB.jpg,0,0,0,0,0,20,20,45,,,,,81.88861239998369,82.46940649999306,4.206250000000001,0.5670232999837026,21,"[1.6845920999767259, 0.8337809999939054, 0.7335125000099652, 4.218718499992974, 0.46825400000670925, 0.7669633000041358, 0.6345606000395492, 0.5502096999553032, 0.5015247000264935, 0.5334193000453524, 0.7168563000159338, 0.6876487000263296, 0.5503682999988087, 0.5345272999838926, 0.5345247999648564, 0.8503420000197366, 0.4698708000360057, 0.5337919000303373, 0.6480420000152662, 0.5011134000378661, 0.5681661000126041]","[1.6845968999550678, 0.8337862000335008, 0.7335207000141963, 4.218725099985022, 0.46826570003759116, 0.7669688999885693, 0.6345662000239827, 0.5502160000032745, 0.5015534000121988, 0.5334255000343546, 0.7168627000064589, 0.6876641000271775, 0.5503752999939024, 0.5345355999888852, 0.5345320000196807, 0.8503499000216834, 0.46987550001358613, 0.5337988000246696, 0.6480473999981768, 0.5011200000299141, 0.5681716999970376]",666,food,0,1,BR,1,2023-07-17_14h19.11.061,crystals,2022.2.4,60.085609964439804,
1%milk.jpg,stimuli/food/,stimuli/food/1%milk.jpg,0,0,0,0,0,21,21,0,,,,,83.58638649998466,84.23659739998402,5.10625,0.6345471999957226,22,"[1.6845920999767259, 0.8337809999939054, 0.7335125000099652, 4.218718499992974, 0.46825400000670925, 0.7669633000041358, 0.6345606000395492, 0.5502096999553032, 0.5015247000264935, 0.5334193000453524, 0.7168563000159338, 0.6876487000263296, 0.5503682999988087, 0.5345272999838926, 0.5345247999648564, 0.8503420000197366, 0.4698708000360057, 0.5337919000303373, 0.6480420000152662, 0.5011134000378661, 0.5681661000126041, 0.6837556999525987]","[1.6845968999550678, 0.8337862000335008, 0.7335207000141963, 4.218725099985022, 0.46826570003759116, 0.7669688999885693, 0.6345662000239827, 0.5502160000032745, 0.5015534000121988, 0.5334255000343546, 0.7168627000064589, 0.6876641000271775, 0.5503752999939024, 0.5345355999888852, 0.5345320000196807, 0.8503499000216834, 0.46987550001358613, 0.5337988000246696, 0.6480473999981768, 0.5011200000299141, 0.5681716999970376, 0.6837622000020929]",666,food,0,1,BR,1,2023-07-17_14h19.11.061,crystals,2022.2.4,60.085609964439804,
yogurt pretzels.jpg,stimuli/food/,stimuli/food/yogurt pretzels.jpg,0,0,0,0,0,22,22,75,,,,,85.46979139995528,85.9550788999768,6.23125,0.449385899992194,23,"[1.6845920999767259, 0.8337809999939054, 0.7335125000099652, 4.218718499992974, 0.46825400000670925, 0.7669633000041358, 0.6345606000395492, 0.5502096999553032, 0.5015247000264935, 0.5334193000453524, 0.7168563000159338, 0.6876487000263296, 0.5503682999988087, 0.5345272999838926, 0.5345247999648564, 0.8503420000197366, 0.4698708000360057, 0.5337919000303373, 0.6480420000152662, 0.5011134000378661, 0.5681661000126041, 0.6837556999525987, 0.4674323999788612]","[1.6845968999550678, 0.8337862000335008, 0.7335207000141963, 4.218725099985022, 0.46826570003759116, 0.7669688999885693, 0.6345662000239827, 0.5502160000032745, 0.5015534000121988, 0.5334255000343546, 0.7168627000064589, 0.6876641000271775, 0.5503752999939024, 0.5345355999888852, 0.5345320000196807, 0.8503499000216834, 0.46987550001358613, 0.5337988000246696, 0.6480473999981768, 0.5011200000299141, 0.5681716999970376, 0.6837622000020929, 0.4674379000207409]",666,food,0,1,BR,1,2023-07-17_14h19.11.061,crystals,2022.2.4,60.085609964439804,
brownie.jpg,stimuli/food/,stimuli/food/brownie.jpg,0,0,0,0,0,23,23,12,,,,,86.95294149999972,87.62510119995568,7.1425,0.62259990000166,24,"[1.6845920999767259, 0.8337809999939054, 0.7335125000099652, 4.218718499992974, 0.46825400000670925, 0.7669633000041358, 0.6345606000395492, 0.5502096999553032, 0.5015247000264935, 0.5334193000453524, 0.7168563000159338, 0.6876487000263296, 0.5503682999988087, 0.5345272999838926, 0.5345247999648564, 0.8503420000197366, 0.4698708000360057, 0.5337919000303373, 0.6480420000152662, 0.5011134000378661, 0.5681661000126041, 0.6837556999525987, 0.4674323999788612, 0.49752979999175295]","[1.6845968999550678, 0.8337862000335008, 0.7335207000141963, 4.218725099985022, 0.46826570003759116, 0.7669688999885693, 0.6345662000239827, 0.5502160000032745, 0.5015534000121988, 0.5334255000343546, 0.7168627000064589, 0.6876641000271775, 0.5503752999939024, 0.5345355999888852, 0.5345320000196807, 0.8503499000216834, 0.46987550001358613, 0.5337988000246696, 0.6480473999981768, 0.5011200000299141, 0.5681716999970376, 0.6837622000020929, 0.4674379000207409, 0.49753819999750704]",666,food,0,1,BR,1,2023-07-17_14h19.11.061,crystals,2022.2.4,60.085609964439804,
air popcorn.jpg,stimuli/food/,stimuli/food/air popcorn.jpg,0,0,0,0,0,24,24,1,,,,,88.63679379998939,89.20382339996286,8.1175,0.5506152999587357,25,"[1.6845920999767259, 0.8337809999939054, 0.7335125000099652, 4.218718499992974, 0.46825400000670925, 0.7669633000041358, 0.6345606000395492, 0.5502096999553032, 0.5015247000264935, 0.5334193000453524, 0.7168563000159338, 0.6876487000263296, 0.5503682999988087, 0.5345272999838926, 0.5345247999648564, 0.8503420000197366, 0.4698708000360057, 0.5337919000303373, 0.6480420000152662, 0.5011134000378661, 0.5681661000126041, 0.6837556999525987, 0.4674323999788612, 0.49752979999175295, 0.9178679999895394]","[1.6845968999550678, 0.8337862000335008, 0.7335207000141963, 4.218725099985022, 0.46826570003759116, 0.7669688999885693, 0.6345662000239827, 0.5502160000032745, 0.5015534000121988, 0.5334255000343546, 0.7168627000064589, 0.6876641000271775, 0.5503752999939024, 0.5345355999888852, 0.5345320000196807, 0.8503499000216834, 0.46987550001358613, 0.5337988000246696, 0.6480473999981768, 0.5011200000299141, 0.5681716999970376, 0.6837622000020929, 0.4674379000207409, 0.49753819999750704, 0.9178744999808259]",666,food,0,1,BR,1,2023-07-17_14h19.11.061,crystals,2022.2.4,60.085609964439804,
mushrooms.jpg,stimuli/food/,stimuli/food/mushrooms.jpg,0,0,0,0,0,25,25,43,,,,,90.6532127999817,91.02054209995549,9.45625,0.3515475000021979,26,"[1.6845920999767259, 0.8337809999939054, 0.7335125000099652, 4.218718499992974, 0.46825400000670925, 0.7669633000041358, 0.6345606000395492, 0.5502096999553032, 0.5015247000264935, 0.5334193000453524, 0.7168563000159338, 0.6876487000263296, 0.5503682999988087, 0.5345272999838926, 0.5345247999648564, 0.8503420000197366, 0.4698708000360057, 0.5337919000303373, 0.6480420000152662, 0.5011134000378661, 0.5681661000126041, 0.6837556999525987, 0.4674323999788612, 0.49752979999175295, 0.9178679999895394, 0.6360502000316046]","[1.6845968999550678, 0.8337862000335008, 0.7335207000141963, 4.218725099985022, 0.46826570003759116, 0.7669688999885693, 0.6345662000239827, 0.5502160000032745, 0.5015534000121988, 0.5334255000343546, 0.7168627000064589, 0.6876641000271775, 0.5503752999939024, 0.5345355999888852, 0.5345320000196807, 0.8503499000216834, 0.46987550001358613, 0.5337988000246696, 0.6480473999981768, 0.5011200000299141, 0.5681716999970376, 0.6837622000020929, 0.4674379000207409, 0.49753819999750704, 0.9178744999808259, 0.6360636000172235]",666,food,0,1,BR,1,2023-07-17_14h19.11.061,crystals,2022.2.4,60.085609964439804,
Hershey Kisses.jpg,stimuli/food/,stimuli/food/Hershey Kisses.jpg,0,0,0,0,0,26,26,33,,,,,92.18680279998807,92.82018069998594,8.24125,0.6173770000459626,27,"[1.6845920999767259, 0.8337809999939054, 0.7335125000099652, 4.218718499992974, 0.46825400000670925, 0.7669633000041358, 0.6345606000395492, 0.5502096999553032, 0.5015247000264935, 0.5334193000453524, 0.7168563000159338, 0.6876487000263296, 0.5503682999988087, 0.5345272999838926, 0.5345247999648564, 0.8503420000197366, 0.4698708000360057, 0.5337919000303373, 0.6480420000152662, 0.5011134000378661, 0.5681661000126041, 0.6837556999525987, 0.4674323999788612, 0.49752979999175295, 0.9178679999895394, 0.6360502000316046, 1.0179003999801353]","[1.6845968999550678, 0.8337862000335008, 0.7335207000141963, 4.218725099985022, 0.46826570003759116, 0.7669688999885693, 0.6345662000239827, 0.5502160000032745, 0.5015534000121988, 0.5334255000343546, 0.7168627000064589, 0.6876641000271775, 0.5503752999939024, 0.5345355999888852, 0.5345320000196807, 0.8503499000216834, 0.46987550001358613, 0.5337988000246696, 0.6480473999981768, 0.5011200000299141, 0.5681716999970376, 0.6837622000020929, 0.4674379000207409, 0.49753819999750704, 0.9178744999808259, 0.6360636000172235, 1.0179070999729447]",666,food,0,1,BR,1,2023-07-17_14h19.11.061,crystals,2022.2.4,60.085609964439804,
salad w chicken.jpg,stimuli/food/,stimuli/food/salad w chicken.jpg,0,0,0,0,0,27,27,57,,,,,94.37007209996227,94.97058949997881,7.285,0.5835946000297554,28,"[1.6845920999767259, 0.8337809999939054, 0.7335125000099652, 4.218718499992974, 0.46825400000670925, 0.7669633000041358, 0.6345606000395492, 0.5502096999553032, 0.5015247000264935, 0.5334193000453524, 0.7168563000159338, 0.6876487000263296, 0.5503682999988087, 0.5345272999838926, 0.5345247999648564, 0.8503420000197366, 0.4698708000360057, 0.5337919000303373, 0.6480420000152662, 0.5011134000378661, 0.5681661000126041, 0.6837556999525987, 0.4674323999788612, 0.49752979999175295, 0.9178679999895394, 0.6360502000316046, 1.0179003999801353, 0.5163606000132859]","[1.6845968999550678, 0.8337862000335008, 0.7335207000141963, 4.218725099985022, 0.46826570003759116, 0.7669688999885693, 0.6345662000239827, 0.5502160000032745, 0.5015534000121988, 0.5334255000343546, 0.7168627000064589, 0.6876641000271775, 0.5503752999939024, 0.5345355999888852, 0.5345320000196807, 0.8503499000216834, 0.46987550001358613, 0.5337988000246696, 0.6480473999981768, 0.5011200000299141, 0.5681716999970376, 0.6837622000020929, 0.4674379000207409, 0.49753819999750704, 0.9178744999808259, 0.6360636000172235, 1.0179070999729447, 0.5163702999707311]",666,food,0,1,BR,1,2023-07-17_14h19.11.061,crystals,2022.2.4,60.085609964439804,
strawberries.jpg,stimuli/food/,stimuli/food/strawberries.jpg,0,0,0,0,0,28,28,65,,,,,96.0202513000113,96.58664839999983,6.43375,0.5505057999980636,29,"[1.6845920999767259, 0.8337809999939054, 0.7335125000099652, 4.218718499992974, 0.46825400000670925, 0.7669633000041358, 0.6345606000395492, 0.5502096999553032, 0.5015247000264935, 0.5334193000453524, 0.7168563000159338, 0.6876487000263296, 0.5503682999988087, 0.5345272999838926, 0.5345247999648564, 0.8503420000197366, 0.4698708000360057, 0.5337919000303373, 0.6480420000152662, 0.5011134000378661, 0.5681661000126041, 0.6837556999525987, 0.4674323999788612, 0.49752979999175295, 0.9178679999895394, 0.6360502000316046, 1.0179003999801353, 0.5163606000132859, 0.5520856999792159]","[1.6845968999550678, 0.8337862000335008, 0.7335207000141963, 4.218725099985022, 0.46826570003759116, 0.7669688999885693, 0.6345662000239827, 0.5502160000032745, 0.5015534000121988, 0.5334255000343546, 0.7168627000064589, 0.6876641000271775, 0.5503752999939024, 0.5345355999888852, 0.5345320000196807, 0.8503499000216834, 0.46987550001358613, 0.5337988000246696, 0.6480473999981768, 0.5011200000299141, 0.5681716999970376, 0.6837622000020929, 0.4674379000207409, 0.49753819999750704, 0.9178744999808259, 0.6360636000172235, 1.0179070999729447, 0.5163702999707311, 0.5520920000271872]",666,food,0,1,BR,1,2023-07-17_14h19.11.061,crystals,2022.2.4,60.085609964439804,
yellow popcorn.jpg,stimuli/food/,stimuli/food/yellow popcorn.jpg,0,0,0,0,0,29,29,73,,,,,97.68664550001267,98.27976840001065,5.63125,0.5400041000102647,30,"[1.6845920999767259, 0.8337809999939054, 0.7335125000099652, 4.218718499992974, 0.46825400000670925, 0.7669633000041358, 0.6345606000395492, 0.5502096999553032, 0.5015247000264935, 0.5334193000453524, 0.7168563000159338, 0.6876487000263296, 0.5503682999988087, 0.5345272999838926, 0.5345247999648564, 0.8503420000197366, 0.4698708000360057, 0.5337919000303373, 0.6480420000152662, 0.5011134000378661, 0.5681661000126041, 0.6837556999525987, 0.4674323999788612, 0.49752979999175295, 0.9178679999895394, 0.6360502000316046, 1.0179003999801353, 0.5163606000132859, 0.5520856999792159, 0.5167517999652773]","[1.6845968999550678, 0.8337862000335008, 0.7335207000141963, 4.218725099985022, 0.46826570003759116, 0.7669688999885693, 0.6345662000239827, 0.5502160000032745, 0.5015534000121988, 0.5334255000343546, 0.7168627000064589, 0.6876641000271775, 0.5503752999939024, 0.5345355999888852, 0.5345320000196807, 0.8503499000216834, 0.46987550001358613, 0.5337988000246696, 0.6480473999981768, 0.5011200000299141, 0.5681716999970376, 0.6837622000020929, 0.4674379000207409, 0.49753819999750704, 0.9178744999808259, 0.6360636000172235, 1.0179070999729447, 0.5163702999707311, 0.5520920000271872, 0.5167578000109643]",666,food,0,1,BR,1,2023-07-17_14h19.11.061,crystals,2022.2.4,60.085609964439804,
turkey sandwich.jpg,stimuli/food/,stimuli/food/turkey sandwich.jpg,0,0,0,0,0,30,30,71,,,,,99.30563269997947,99.87151749996701,4.3225,0.5170378000475466,31,"[1.6845920999767259, 0.8337809999939054, 0.7335125000099652, 4.218718499992974, 0.46825400000670925, 0.7669633000041358, 0.6345606000395492, 0.5502096999553032, 0.5015247000264935, 0.5334193000453524, 0.7168563000159338, 0.6876487000263296, 0.5503682999988087, 0.5345272999838926, 0.5345247999648564, 0.8503420000197366, 0.4698708000360057, 0.5337919000303373, 0.6480420000152662, 0.5011134000378661, 0.5681661000126041, 0.6837556999525987, 0.4674323999788612, 0.49752979999175295, 0.9178679999895394, 0.6360502000316046, 1.0179003999801353, 0.5163606000132859, 0.5520856999792159, 0.5167517999652773, 1.0605818000040017]","[1.6845968999550678, 0.8337862000335008, 0.7335207000141963, 4.218725099985022, 0.46826570003759116, 0.7669688999885693, 0.6345662000239827, 0.5502160000032745, 0.5015534000121988, 0.5334255000343546, 0.7168627000064589, 0.6876641000271775, 0.5503752999939024, 0.5345355999888852, 0.5345320000196807, 0.8503499000216834, 0.46987550001358613, 0.5337988000246696, 0.6480473999981768, 0.5011200000299141, 0.5681716999970376, 0.6837622000020929, 0.4674379000207409, 0.49753819999750704, 0.9178744999808259, 0.6360636000172235, 1.0179070999729447, 0.5163702999707311, 0.5520920000271872, 0.5167578000109643, 1.0605869999853894]",666,food,0,1,BR,1,2023-07-17_14h19.11.061,crystals,2022.2.4,60.085609964439804,
m_and_m.jpg,stimuli/food/,stimuli/food/m_and_m.jpg,0,0,0,0,0,31,31,38,,,,,101.47366179997334,101.92110310000135,3.5424999999999995,0.4339713000226766,32,"[1.6845920999767259, 0.8337809999939054, 0.7335125000099652, 4.218718499992974, 0.46825400000670925, 0.7669633000041358, 0.6345606000395492, 0.5502096999553032, 0.5015247000264935, 0.5334193000453524, 0.7168563000159338, 0.6876487000263296, 0.5503682999988087, 0.5345272999838926, 0.5345247999648564, 0.8503420000197366, 0.4698708000360057, 0.5337919000303373, 0.6480420000152662, 0.5011134000378661, 0.5681661000126041, 0.6837556999525987, 0.4674323999788612, 0.49752979999175295, 0.9178679999895394, 0.6360502000316046, 1.0179003999801353, 0.5163606000132859, 0.5520856999792159, 0.5167517999652773, 1.0605818000040017, 0.7157946999650449]","[1.6845968999550678, 0.8337862000335008, 0.7335207000141963, 4.218725099985022, 0.46826570003759116, 0.7669688999885693, 0.6345662000239827, 0.5502160000032745, 0.5015534000121988, 0.5334255000343546, 0.7168627000064589, 0.6876641000271775, 0.5503752999939024, 0.5345355999888852, 0.5345320000196807, 0.8503499000216834, 0.46987550001358613, 0.5337988000246696, 0.6480473999981768, 0.5011200000299141, 0.5681716999970376, 0.6837622000020929, 0.4674379000207409, 0.49753819999750704, 0.9178744999808259, 0.6360636000172235, 1.0179070999729447, 0.5163702999707311, 0.5520920000271872, 0.5167578000109643, 1.0605869999853894, 0.7158002999494784]",666,food,0,1,BR,1,2023-07-17_14h19.11.061,crystals,2022.2.4,60.085609964439804,
pickles.jpg,stimuli/food/,stimuli/food/pickles.jpg,0,0,0,0,0,32,32,47,,,,,103.41206699999748,103.8875080999569,2.6275000000000004,0.7008539999951608,33,"[1.6845920999767259, 0.8337809999939054, 0.7335125000099652, 4.218718499992974, 0.46825400000670925, 0.7669633000041358, 0.6345606000395492, 0.5502096999553032, 0.5015247000264935, 0.5334193000453524, 0.7168563000159338, 0.6876487000263296, 0.5503682999988087, 0.5345272999838926, 0.5345247999648564, 0.8503420000197366, 0.4698708000360057, 0.5337919000303373, 0.6480420000152662, 0.5011134000378661, 0.5681661000126041, 0.6837556999525987, 0.4674323999788612, 0.49752979999175295, 0.9178679999895394, 0.6360502000316046, 1.0179003999801353, 0.5163606000132859, 0.5520856999792159, 0.5167517999652773, 1.0605818000040017, 0.7157946999650449, 0.5516240999568254]","[1.6845968999550678, 0.8337862000335008, 0.7335207000141963, 4.218725099985022, 0.46826570003759116, 0.7669688999885693, 0.6345662000239827, 0.5502160000032745, 0.5015534000121988, 0.5334255000343546, 0.7168627000064589, 0.6876641000271775, 0.5503752999939024, 0.5345355999888852, 0.5345320000196807, 0.8503499000216834, 0.46987550001358613, 0.5337988000246696, 0.6480473999981768, 0.5011200000299141, 0.5681716999970376, 0.6837622000020929, 0.4674379000207409, 0.49753819999750704, 0.9178744999808259, 0.6360636000172235, 1.0179070999729447, 0.5163702999707311, 0.5520920000271872, 0.5167578000109643, 1.0605869999853894, 0.7158002999494784, 0.5516314000124112]",666,food,0,1,BR,1,2023-07-17_14h19.11.061,crystals,2022.2.4,60.085609964439804,
corn cob.jpg,stimuli/food/,stimuli/food/corn cob.jpg,0,0,0,0,0,33,33,20,,,,,104.97047399997246,105.43655699997908,1.6975000000000002,0.4491751999594271,34,"[1.6845920999767259, 0.8337809999939054, 0.7335125000099652, 4.218718499992974, 0.46825400000670925, 0.7669633000041358, 0.6345606000395492, 0.5502096999553032, 0.5015247000264935, 0.5334193000453524, 0.7168563000159338, 0.6876487000263296, 0.5503682999988087, 0.5345272999838926, 0.5345247999648564, 0.8503420000197366, 0.4698708000360057, 0.5337919000303373, 0.6480420000152662, 0.5011134000378661, 0.5681661000126041, 0.6837556999525987, 0.4674323999788612, 0.49752979999175295, 0.9178679999895394, 0.6360502000316046, 1.0179003999801353, 0.5163606000132859, 0.5520856999792159, 0.5167517999652773, 1.0605818000040017, 0.7157946999650449, 0.5516240999568254, 0.6674886000109836]","[1.6845968999550678, 0.8337862000335008, 0.7335207000141963, 4.218725099985022, 0.46826570003759116, 0.7669688999885693, 0.6345662000239827, 0.5502160000032745, 0.5015534000121988, 0.5334255000343546, 0.7168627000064589, 0.6876641000271775, 0.5503752999939024, 0.5345355999888852, 0.5345320000196807, 0.8503499000216834, 0.46987550001358613, 0.5337988000246696, 0.6480473999981768, 0.5011200000299141, 0.5681716999970376, 0.6837622000020929, 0.4674379000207409, 0.49753819999750704, 0.9178744999808259, 0.6360636000172235, 1.0179070999729447, 0.5163702999707311, 0.5520920000271872, 0.5167578000109643, 1.0605869999853894, 0.7158002999494784, 0.5516314000124112, 0.6674978000228293]",666,food,0,1,BR,1,2023-07-17_14h19.11.061,crystals,2022.2.4,60.085609964439804,
ritz.jpg,stimuli/food/,stimuli/food/ritz.jpg,0,0,0,0,0,34,34,56,,,,,106.63690260000294,107.23779779998586,2.2112499999999997,0.5832875000196509,35,"[1.6845920999767259, 0.8337809999939054, 0.7335125000099652, 4.218718499992974, 0.46825400000670925, 0.7669633000041358, 0.6345606000395492, 0.5502096999553032, 0.5015247000264935, 0.5334193000453524, 0.7168563000159338, 0.6876487000263296, 0.5503682999988087, 0.5345272999838926, 0.5345247999648564, 0.8503420000197366, 0.4698708000360057, 0.5337919000303373, 0.6480420000152662, 0.5011134000378661, 0.5681661000126041, 0.6837556999525987, 0.4674323999788612, 0.49752979999175295, 0.9178679999895394, 0.6360502000316046, 1.0179003999801353, 0.5163606000132859, 0.5520856999792159, 0.5167517999652773, 1.0605818000040017, 0.7157946999650449, 0.5516240999568254, 0.6674886000109836, 0.7844934000167996]","[1.6845968999550678, 0.8337862000335008, 0.7335207000141963, 4.218725099985022, 0.46826570003759116, 0.7669688999885693, 0.6345662000239827, 0.5502160000032745, 0.5015534000121988, 0.5334255000343546, 0.7168627000064589, 0.6876641000271775, 0.5503752999939024, 0.5345355999888852, 0.5345320000196807, 0.8503499000216834, 0.46987550001358613, 0.5337988000246696, 0.6480473999981768, 0.5011200000299141, 0.5681716999970376, 0.6837622000020929, 0.4674379000207409, 0.49753819999750704, 0.9178744999808259, 0.6360636000172235, 1.0179070999729447, 0.5163702999707311, 0.5520920000271872, 0.5167578000109643, 1.0605869999853894, 0.7158002999494784, 0.5516314000124112, 0.6674978000228293, 0.7844998000073247]",666,food,0,1,BR,1,2023-07-17_14h19.11.061,crystals,2022.2.4,60.085609964439804,
french fries.jpg,stimuli/food/,stimuli/food/french fries.jpg,0,0,0,0,0,35,35,25,,,,,108.55382919998374,109.05466560000787,3.16375,0.4840938000124879,36,"[1.6845920999767259, 0.8337809999939054, 0.7335125000099652, 4.218718499992974, 0.46825400000670925, 0.7669633000041358, 0.6345606000395492, 0.5502096999553032, 0.5015247000264935, 0.5334193000453524, 0.7168563000159338, 0.6876487000263296, 0.5503682999988087, 0.5345272999838926, 0.5345247999648564, 0.8503420000197366, 0.4698708000360057, 0.5337919000303373, 0.6480420000152662, 0.5011134000378661, 0.5681661000126041, 0.6837556999525987, 0.4674323999788612, 0.49752979999175295, 0.9178679999895394, 0.6360502000316046, 1.0179003999801353, 0.5163606000132859, 0.5520856999792159, 0.5167517999652773, 1.0605818000040017, 0.7157946999650449, 0.5516240999568254, 0.6674886000109836, 0.7844934000167996, 0.6167516999994405]","[1.6845968999550678, 0.8337862000335008, 0.7335207000141963, 4.218725099985022, 0.46826570003759116, 0.7669688999885693, 0.6345662000239827, 0.5502160000032745, 0.5015534000121988, 0.5334255000343546, 0.7168627000064589, 0.6876641000271775, 0.5503752999939024, 0.5345355999888852, 0.5345320000196807, 0.8503499000216834, 0.46987550001358613, 0.5337988000246696, 0.6480473999981768, 0.5011200000299141, 0.5681716999970376, 0.6837622000020929, 0.4674379000207409, 0.49753819999750704, 0.9178744999808259, 0.6360636000172235, 1.0179070999729447, 0.5163702999707311, 0.5520920000271872, 0.5167578000109643, 1.0605869999853894, 0.7158002999494784, 0.5516314000124112, 0.6674978000228293, 0.7844998000073247, 0.6167586999945343]",666,food,0,1,BR,1,2023-07-17_14h19.11.061,crystals,2022.2.4,60.085609964439804,
apple slices.jpg,stimuli/food/,stimuli/food/apple slices.jpg,0,0,0,0,0,36,36,3,,,,,110.20409710000968,110.72009839996463,4.3375,0.4993428000016138,37,"[1.6845920999767259, 0.8337809999939054, 0.7335125000099652, 4.218718499992974, 0.46825400000670925, 0.7669633000041358, 0.6345606000395492, 0.5502096999553032, 0.5015247000264935, 0.5334193000453524, 0.7168563000159338, 0.6876487000263296, 0.5503682999988087, 0.5345272999838926, 0.5345247999648564, 0.8503420000197366, 0.4698708000360057, 0.5337919000303373, 0.6480420000152662, 0.5011134000378661, 0.5681661000126041, 0.6837556999525987, 0.4674323999788612, 0.49752979999175295, 0.9178679999895394, 0.6360502000316046, 1.0179003999801353, 0.5163606000132859, 0.5520856999792159, 0.5167517999652773, 1.0605818000040017, 0.7157946999650449, 0.5516240999568254, 0.6674886000109836, 0.7844934000167996, 0.6167516999994405, 0.5513547000009567]","[1.6845968999550678, 0.8337862000335008, 0.7335207000141963, 4.218725099985022, 0.46826570003759116, 0.7669688999885693, 0.6345662000239827, 0.5502160000032745, 0.5015534000121988, 0.5334255000343546, 0.7168627000064589, 0.6876641000271775, 0.5503752999939024, 0.5345355999888852, 0.5345320000196807, 0.8503499000216834, 0.46987550001358613, 0.5337988000246696, 0.6480473999981768, 0.5011200000299141, 0.5681716999970376, 0.6837622000020929, 0.4674379000207409, 0.49753819999750704, 0.9178744999808259, 0.6360636000172235, 1.0179070999729447, 0.5163702999707311, 0.5520920000271872, 0.5167578000109643, 1.0605869999853894, 0.7158002999494784, 0.5516314000124112, 0.6674978000228293, 0.7844998000073247, 0.6167586999945343, 0.551361000048928]",666,food,0,1,BR,1,2023-07-17_14h19.11.061,crystals,2022.2.4,60.085609964439804,
bagel and cc.jpg,stimuli/food/,stimuli/food/bagel and cc.jpg,0,0,0,0,0,37,37,6,,,,,111.8201512999949,112.28777860000264,5.19625,0.450548599998001,38,"[1.6845920999767259, 0.8337809999939054, 0.7335125000099652, 4.218718499992974, 0.46825400000670925, 0.7669633000041358, 0.6345606000395492, 0.5502096999553032, 0.5015247000264935, 0.5334193000453524, 0.7168563000159338, 0.6876487000263296, 0.5503682999988087, 0.5345272999838926, 0.5345247999648564, 0.8503420000197366, 0.4698708000360057, 0.5337919000303373, 0.6480420000152662, 0.5011134000378661, 0.5681661000126041, 0.6837556999525987, 0.4674323999788612, 0.49752979999175295, 0.9178679999895394, 0.6360502000316046, 1.0179003999801353, 0.5163606000132859, 0.5520856999792159, 0.5167517999652773, 1.0605818000040017, 0.7157946999650449, 0.5516240999568254, 0.6674886000109836, 0.7844934000167996, 0.6167516999994405, 0.5513547000009567, 0.48517090000677854]","[1.6845968999550678, 0.8337862000335008, 0.7335207000141963, 4.218725099985022, 0.46826570003759116, 0.7669688999885693, 0.6345662000239827, 0.5502160000032745, 0.5015534000121988, 0.5334255000343546, 0.7168627000064589, 0.6876641000271775, 0.5503752999939024, 0.5345355999888852, 0.5345320000196807, 0.8503499000216834, 0.46987550001358613, 0.5337988000246696, 0.6480473999981768, 0.5011200000299141, 0.5681716999970376, 0.6837622000020929, 0.4674379000207409, 0.49753819999750704, 0.9178744999808259, 0.6360636000172235, 1.0179070999729447, 0.5163702999707311, 0.5520920000271872, 0.5167578000109643, 1.0605869999853894, 0.7158002999494784, 0.5516314000124112, 0.6674978000228293, 0.7844998000073247, 0.6167586999945343, 0.551361000048928, 0.4851778000011109]",666,food,0,1,BR,1,2023-07-17_14h19.11.061,crystals,2022.2.4,60.085609964439804,
fried eggs.jpg,stimuli/food/,stimuli/food/fried eggs.jpg,0,0,0,0,0,38,38,26,,,,,113.3038204999757,113.83764729998074,6.3325000000000005,0.5168470000498928,39,"[1.6845920999767259, 0.8337809999939054, 0.7335125000099652, 4.218718499992974, 0.46825400000670925, 0.7669633000041358, 0.6345606000395492, 0.5502096999553032, 0.5015247000264935, 0.5334193000453524, 0.7168563000159338, 0.6876487000263296, 0.5503682999988087, 0.5345272999838926, 0.5345247999648564, 0.8503420000197366, 0.4698708000360057, 0.5337919000303373, 0.6480420000152662, 0.5011134000378661, 0.5681661000126041, 0.6837556999525987, 0.4674323999788612, 0.49752979999175295, 0.9178679999895394, 0.6360502000316046, 1.0179003999801353, 0.5163606000132859, 0.5520856999792159, 0.5167517999652773, 1.0605818000040017, 0.7157946999650449, 0.5516240999568254, 0.6674886000109836, 0.7844934000167996, 0.6167516999994405, 0.5513547000009567, 0.48517090000677854, 0.517302300024312]","[1.6845968999550678, 0.8337862000335008, 0.7335207000141963, 4.218725099985022, 0.46826570003759116, 0.7669688999885693, 0.6345662000239827, 0.5502160000032745, 0.5015534000121988, 0.5334255000343546, 0.7168627000064589, 0.6876641000271775, 0.5503752999939024, 0.5345355999888852, 0.5345320000196807, 0.8503499000216834, 0.46987550001358613, 0.5337988000246696, 0.6480473999981768, 0.5011200000299141, 0.5681716999970376, 0.6837622000020929, 0.4674379000207409, 0.49753819999750704, 0.9178744999808259, 0.6360636000172235, 1.0179070999729447, 0.5163702999707311, 0.5520920000271872, 0.5167578000109643, 1.0605869999853894, 0.7158002999494784, 0.5516314000124112, 0.6674978000228293, 0.7844998000073247, 0.6167586999945343, 0.551361000048928, 0.4851778000011109, 0.5173090000171214]",666,food,0,1,BR,1,2023-07-17_14h19.11.061,crystals,2022.2.4,60.085609964439804,
doughnuts.jpg,stimuli/food/,stimuli/food/doughnuts.jpg,0,0,0,0,0,39,39,23,,,,,114.8871194999665,115.42088779999176,7.4125000000000005,0.5164178000413813,40,"[1.6845920999767259, 0.8337809999939054, 0.7335125000099652, 4.218718499992974, 0.46825400000670925, 0.7669633000041358, 0.6345606000395492, 0.5502096999553032, 0.5015247000264935, 0.5334193000453524, 0.7168563000159338, 0.6876487000263296, 0.5503682999988087, 0.5345272999838926, 0.5345247999648564, 0.8503420000197366, 0.4698708000360057, 0.5337919000303373, 0.6480420000152662, 0.5011134000378661, 0.5681661000126041, 0.6837556999525987, 0.4674323999788612, 0.49752979999175295, 0.9178679999895394, 0.6360502000316046, 1.0179003999801353, 0.5163606000132859, 0.5520856999792159, 0.5167517999652773, 1.0605818000040017, 0.7157946999650449, 0.5516240999568254, 0.6674886000109836, 0.7844934000167996, 0.6167516999994405, 0.5513547000009567, 0.48517090000677854, 0.517302300024312, 0.5841294000274502]","[1.6845968999550678, 0.8337862000335008, 0.7335207000141963, 4.218725099985022, 0.46826570003759116, 0.7669688999885693, 0.6345662000239827, 0.5502160000032745, 0.5015534000121988, 0.5334255000343546, 0.7168627000064589, 0.6876641000271775, 0.5503752999939024, 0.5345355999888852, 0.5345320000196807, 0.8503499000216834, 0.46987550001358613, 0.5337988000246696, 0.6480473999981768, 0.5011200000299141, 0.5681716999970376, 0.6837622000020929, 0.4674379000207409, 0.49753819999750704, 0.9178744999808259, 0.6360636000172235, 1.0179070999729447, 0.5163702999707311, 0.5520920000271872, 0.5167578000109643, 1.0605869999853894, 0.7158002999494784, 0.5516314000124112, 0.6674978000228293, 0.7844998000073247, 0.6167586999945343, 0.551361000048928, 0.4851778000011109, 0.5173090000171214, 0.5841360000194982]",666,food,0,1,BR,1,2023-07-17_14h19.11.061,crystals,2022.2.4,60.085609964439804,
cucumber slices.jpg,stimuli/food/,stimuli/food/cucumber slices.jpg,0,0,0,0,0,40,40,21,,,,,116.55404189997353,116.98716469999636,8.462499999999999,0.41716700000688434,41,"[1.6845920999767259, 0.8337809999939054, 0.7335125000099652, 4.218718499992974, 0.46825400000670925, 0.7669633000041358, 0.6345606000395492, 0.5502096999553032, 0.5015247000264935, 0.5334193000453524, 0.7168563000159338, 0.6876487000263296, 0.5503682999988087, 0.5345272999838926, 0.5345247999648564, 0.8503420000197366, 0.4698708000360057, 0.5337919000303373, 0.6480420000152662, 0.5011134000378661, 0.5681661000126041, 0.6837556999525987, 0.4674323999788612, 0.49752979999175295, 0.9178679999895394, 0.6360502000316046, 1.0179003999801353, 0.5163606000132859, 0.5520856999792159, 0.5167517999652773, 1.0605818000040017, 0.7157946999650449, 0.5516240999568254, 0.6674886000109836, 0.7844934000167996, 0.6167516999994405, 0.5513547000009567, 0.48517090000677854, 0.517302300024312, 0.5841294000274502, 0.5511981999734417]","[1.6845968999550678, 0.8337862000335008, 0.7335207000141963, 4.218725099985022, 0.46826570003759116, 0.7669688999885693, 0.6345662000239827, 0.5502160000032745, 0.5015534000121988, 0.5334255000343546, 0.7168627000064589, 0.6876641000271775, 0.5503752999939024, 0.5345355999888852, 0.5345320000196807, 0.8503499000216834, 0.46987550001358613, 0.5337988000246696, 0.6480473999981768, 0.5011200000299141, 0.5681716999970376, 0.6837622000020929, 0.4674379000207409, 0.49753819999750704, 0.9178744999808259, 0.6360636000172235, 1.0179070999729447, 0.5163702999707311, 0.5520920000271872, 0.5167578000109643, 1.0605869999853894, 0.7158002999494784, 0.5516314000124112, 0.6674978000228293, 0.7844998000073247, 0.6167586999945343, 0.551361000048928, 0.4851778000011109, 0.5173090000171214, 0.5841360000194982, 0.551203400013037]",666,food,0,1,BR,1,2023-07-17_14h19.11.061,crystals,2022.2.4,60.085609964439804,
yogurt no spoon.jpg,stimuli/food/,stimuli/food/yogurt no spoon.jpg,0,0,0,0,0,41,41,74,,,,,118.07036439998774,118.5891756999772,9.35125,0.4845604000147432,42,"[1.6845920999767259, 0.8337809999939054, 0.7335125000099652, 4.218718499992974, 0.46825400000670925, 0.7669633000041358, 0.6345606000395492, 0.5502096999553032, 0.5015247000264935, 0.5334193000453524, 0.7168563000159338, 0.6876487000263296, 0.5503682999988087, 0.5345272999838926, 0.5345247999648564, 0.8503420000197366, 0.4698708000360057, 0.5337919000303373, 0.6480420000152662, 0.5011134000378661, 0.5681661000126041, 0.6837556999525987, 0.4674323999788612, 0.49752979999175295, 0.9178679999895394, 0.6360502000316046, 1.0179003999801353, 0.5163606000132859, 0.5520856999792159, 0.5167517999652773, 1.0605818000040017, 0.7157946999650449, 0.5516240999568254, 0.6674886000109836, 0.7844934000167996, 0.6167516999994405, 0.5513547000009567, 0.48517090000677854, 0.517302300024312, 0.5841294000274502, 0.5511981999734417, 0.6326906000031158]","[1.6845968999550678, 0.8337862000335008, 0.7335207000141963, 4.218725099985022, 0.46826570003759116, 0.7669688999885693, 0.6345662000239827, 0.5502160000032745, 0.5015534000121988, 0.5334255000343546, 0.7168627000064589, 0.6876641000271775, 0.5503752999939024, 0.5345355999888852, 0.5345320000196807, 0.8503499000216834, 0.46987550001358613, 0.5337988000246696, 0.6480473999981768, 0.5011200000299141, 0.5681716999970376, 0.6837622000020929, 0.4674379000207409, 0.49753819999750704, 0.9178744999808259, 0.6360636000172235, 1.0179070999729447, 0.5163702999707311, 0.5520920000271872, 0.5167578000109643, 1.0605869999853894, 0.7158002999494784, 0.5516314000124112, 0.6674978000228293, 0.7844998000073247, 0.6167586999945343, 0.551361000048928, 0.4851778000011109, 0.5173090000171214, 0.5841360000194982, 0.551203400013037, 0.6326964999898337]",666,food,0,1,BR,1,2023-07-17_14h19.11.061,crystals,2022.2.4,60.085609964439804,
sour patch.jpg,stimuli/food/,stimuli/food/sour patch.jpg,0,0,0,0,0,42,42,62,,,,,119.7533567000064,120.62133110000286,8.70625,0.8490607000421733,43,"[1.6845920999767259, 0.8337809999939054, 0.7335125000099652, 4.218718499992974, 0.46825400000670925, 0.7669633000041358, 0.6345606000395492, 0.5502096999553032, 0.5015247000264935, 0.5334193000453524, 0.7168563000159338, 0.6876487000263296, 0.5503682999988087, 0.5345272999838926, 0.5345247999648564, 0.8503420000197366, 0.4698708000360057, 0.5337919000303373, 0.6480420000152662, 0.5011134000378661, 0.5681661000126041, 0.6837556999525987, 0.4674323999788612, 0.49752979999175295, 0.9178679999895394, 0.6360502000316046, 1.0179003999801353, 0.5163606000132859, 0.5520856999792159, 0.5167517999652773, 1.0605818000040017, 0.7157946999650449, 0.5516240999568254, 0.6674886000109836, 0.7844934000167996, 0.6167516999994405, 0.5513547000009567, 0.48517090000677854, 0.517302300024312, 0.5841294000274502, 0.5511981999734417, 0.6326906000031158, 5.617498899984639]","[1.6845968999550678, 0.8337862000335008, 0.7335207000141963, 4.218725099985022, 0.46826570003759116, 0.7669688999885693, 0.6345662000239827, 0.5502160000032745, 0.5015534000121988, 0.5334255000343546, 0.7168627000064589, 0.6876641000271775, 0.5503752999939024, 0.5345355999888852, 0.5345320000196807, 0.8503499000216834, 0.46987550001358613, 0.5337988000246696, 0.6480473999981768, 0.5011200000299141, 0.5681716999970376, 0.6837622000020929, 0.4674379000207409, 0.49753819999750704, 0.9178744999808259, 0.6360636000172235, 1.0179070999729447, 0.5163702999707311, 0.5520920000271872, 0.5167578000109643, 1.0605869999853894, 0.7158002999494784, 0.5516314000124112, 0.6674978000228293, 0.7844998000073247, 0.6167586999945343, 0.551361000048928, 0.4851778000011109, 0.5173090000171214, 0.5841360000194982, 0.551203400013037, 0.6326964999898337, 5.6175066999858245]",666,food,0,1,BR,1,2023-07-17_14h19.11.061,crystals,2022.2.4,60.085609964439804,
raisin bran w milk.jpg,stimuli/food/,stimuli/food/raisin bran w milk.jpg,0,0,0,0,0,43,43,50,,,,,126.77079439995578,127.20421870000428,7.36,0.4161593999597244,44,"[1.6845920999767259, 0.8337809999939054, 0.7335125000099652, 4.218718499992974, 0.46825400000670925, 0.7669633000041358, 0.6345606000395492, 0.5502096999553032, 0.5015247000264935, 0.5334193000453524, 0.7168563000159338, 0.6876487000263296, 0.5503682999988087, 0.5345272999838926, 0.5345247999648564, 0.8503420000197366, 0.4698708000360057, 0.5337919000303373, 0.6480420000152662, 0.5011134000378661, 0.5681661000126041, 0.6837556999525987, 0.4674323999788612, 0.49752979999175295, 0.9178679999895394, 0.6360502000316046, 1.0179003999801353, 0.5163606000132859, 0.5520856999792159, 0.5167517999652773, 1.0605818000040017, 0.7157946999650449, 0.5516240999568254, 0.6674886000109836, 0.7844934000167996, 0.6167516999994405, 0.5513547000009567, 0.48517090000677854, 0.517302300024312, 0.5841294000274502, 0.5511981999734417, 0.6326906000031158, 5.617498899984639, 0.5166167000425048]","[1.6845968999550678, 0.8337862000335008, 0.7335207000141963, 4.218725099985022, 0.46826570003759116, 0.7669688999885693, 0.6345662000239827, 0.5502160000032745, 0.5015534000121988, 0.5334255000343546, 0.7168627000064589, 0.6876641000271775, 0.5503752999939024, 0.5345355999888852, 0.5345320000196807, 0.8503499000216834, 0.46987550001358613, 0.5337988000246696, 0.6480473999981768, 0.5011200000299141, 0.5681716999970376, 0.6837622000020929, 0.4674379000207409, 0.49753819999750704, 0.9178744999808259, 0.6360636000172235, 1.0179070999729447, 0.5163702999707311, 0.5520920000271872, 0.5167578000109643, 1.0605869999853894, 0.7158002999494784, 0.5516314000124112, 0.6674978000228293, 0.7844998000073247, 0.6167586999945343, 0.551361000048928, 0.4851778000011109, 0.5173090000171214, 0.5841360000194982, 0.551203400013037, 0.6326964999898337, 5.6175066999858245, 0.5166230000322685]",666,food,0,1,BR,1,2023-07-17_14h19.11.061,crystals,2022.2.4,60.085609964439804,
cherries.jpg,stimuli/food/,stimuli/food/cherries.jpg,0,0,0,0,0,44,44,16,,,,,128.2541848999681,128.8210102999583,6.4075,0.5515002000029199,45,"[1.6845920999767259, 0.8337809999939054, 0.7335125000099652, 4.218718499992974, 0.46825400000670925, 0.7669633000041358, 0.6345606000395492, 0.5502096999553032, 0.5015247000264935, 0.5334193000453524, 0.7168563000159338, 0.6876487000263296, 0.5503682999988087, 0.5345272999838926, 0.5345247999648564, 0.8503420000197366, 0.4698708000360057, 0.5337919000303373, 0.6480420000152662, 0.5011134000378661, 0.5681661000126041, 0.6837556999525987, 0.4674323999788612, 0.49752979999175295, 0.9178679999895394, 0.6360502000316046, 1.0179003999801353, 0.5163606000132859, 0.5520856999792159, 0.5167517999652773, 1.0605818000040017, 0.7157946999650449, 0.5516240999568254, 0.6674886000109836, 0.7844934000167996, 0.6167516999994405, 0.5513547000009567, 0.48517090000677854, 0.517302300024312, 0.5841294000274502, 0.5511981999734417, 0.6326906000031158, 5.617498899984639, 0.5166167000425048, 0.5671527999802493]","[1.6845968999550678, 0.8337862000335008, 0.7335207000141963, 4.218725099985022, 0.46826570003759116, 0.7669688999885693, 0.6345662000239827, 0.5502160000032745, 0.5015534000121988, 0.5334255000343546, 0.7168627000064589, 0.6876641000271775, 0.5503752999939024, 0.5345355999888852, 0.5345320000196807, 0.8503499000216834, 0.46987550001358613, 0.5337988000246696, 0.6480473999981768, 0.5011200000299141, 0.5681716999970376, 0.6837622000020929, 0.4674379000207409, 0.49753819999750704, 0.9178744999808259, 0.6360636000172235, 1.0179070999729447, 0.5163702999707311, 0.5520920000271872, 0.5167578000109643, 1.0605869999853894, 0.7158002999494784, 0.5516314000124112, 0.6674978000228293, 0.7844998000073247, 0.6167586999945343, 0.551361000048928, 0.4851778000011109, 0.5173090000171214, 0.5841360000194982, 0.551203400013037, 0.6326964999898337, 5.6175066999858245, 0.5166230000322685, 0.5671584000228904]",666,food,0,1,BR,1,2023-07-17_14h19.11.061,crystals,2022.2.4,60.085609964439804,
seaweed.jpg,stimuli/food/,stimuli/food/seaweed.jpg,0,0,0,0,0,45,45,59,,,,,129.92092050000792,130.47097649995703,5.56375,0.5338171999901533,46,"[1.6845920999767259, 0.8337809999939054, 0.7335125000099652, 4.218718499992974, 0.46825400000670925, 0.7669633000041358, 0.6345606000395492, 0.5502096999553032, 0.5015247000264935, 0.5334193000453524, 0.7168563000159338, 0.6876487000263296, 0.5503682999988087, 0.5345272999838926, 0.5345247999648564, 0.8503420000197366, 0.4698708000360057, 0.5337919000303373, 0.6480420000152662, 0.5011134000378661, 0.5681661000126041, 0.6837556999525987, 0.4674323999788612, 0.49752979999175295, 0.9178679999895394, 0.6360502000316046, 1.0179003999801353, 0.5163606000132859, 0.5520856999792159, 0.5167517999652773, 1.0605818000040017, 0.7157946999650449, 0.5516240999568254, 0.6674886000109836, 0.7844934000167996, 0.6167516999994405, 0.5513547000009567, 0.48517090000677854, 0.517302300024312, 0.5841294000274502, 0.5511981999734417, 0.6326906000031158, 5.617498899984639, 0.5166167000425048, 0.5671527999802493, 0.6171216000220738]","[1.6845968999550678, 0.8337862000335008, 0.7335207000141963, 4.218725099985022, 0.46826570003759116, 0.7669688999885693, 0.6345662000239827, 0.5502160000032745, 0.5015534000121988, 0.5334255000343546, 0.7168627000064589, 0.6876641000271775, 0.5503752999939024, 0.5345355999888852, 0.5345320000196807, 0.8503499000216834, 0.46987550001358613, 0.5337988000246696, 0.6480473999981768, 0.5011200000299141, 0.5681716999970376, 0.6837622000020929, 0.4674379000207409, 0.49753819999750704, 0.9178744999808259, 0.6360636000172235, 1.0179070999729447, 0.5163702999707311, 0.5520920000271872, 0.5167578000109643, 1.0605869999853894, 0.7158002999494784, 0.5516314000124112, 0.6674978000228293, 0.7844998000073247, 0.6167586999945343, 0.551361000048928, 0.4851778000011109, 0.5173090000171214, 0.5841360000194982, 0.551203400013037, 0.6326964999898337, 5.6175066999858245, 0.5166230000322685, 0.5671584000228904, 0.6171284000156447]",666,food,0,1,BR,1,2023-07-17_14h19.11.061,crystals,2022.2.4,60.085609964439804,
green beans.jpg,stimuli/food/,stimuli/food/green beans.jpg,0,0,0,0,0,46,46,30,,,,,131.6376110999845,132.10546749999048,4.57,0.4658923000097275,47,"[1.6845920999767259, 0.8337809999939054, 0.7335125000099652, 4.218718499992974, 0.46825400000670925, 0.7669633000041358, 0.6345606000395492, 0.5502096999553032, 0.5015247000264935, 0.5334193000453524, 0.7168563000159338, 0.6876487000263296, 0.5503682999988087, 0.5345272999838926, 0.5345247999648564, 0.8503420000197366, 0.4698708000360057, 0.5337919000303373, 0.6480420000152662, 0.5011134000378661, 0.5681661000126041, 0.6837556999525987, 0.4674323999788612, 0.49752979999175295, 0.9178679999895394, 0.6360502000316046, 1.0179003999801353, 0.5163606000132859, 0.5520856999792159, 0.5167517999652773, 1.0605818000040017, 0.7157946999650449, 0.5516240999568254, 0.6674886000109836, 0.7844934000167996, 0.6167516999994405, 0.5513547000009567, 0.48517090000677854, 0.517302300024312, 0.5841294000274502, 0.5511981999734417, 0.6326906000031158, 5.617498899984639, 0.5166167000425048, 0.5671527999802493, 0.6171216000220738, 0.48451069998554885]","[1.6845968999550678, 0.8337862000335008, 0.7335207000141963, 4.218725099985022, 0.46826570003759116, 0.7669688999885693, 0.6345662000239827, 0.5502160000032745, 0.5015534000121988, 0.5334255000343546, 0.7168627000064589, 0.6876641000271775, 0.5503752999939024, 0.5345355999888852, 0.5345320000196807, 0.8503499000216834, 0.46987550001358613, 0.5337988000246696, 0.6480473999981768, 0.5011200000299141, 0.5681716999970376, 0.6837622000020929, 0.4674379000207409, 0.49753819999750704, 0.9178744999808259, 0.6360636000172235, 1.0179070999729447, 0.5163702999707311, 0.5520920000271872, 0.5167578000109643, 1.0605869999853894, 0.7158002999494784, 0.5516314000124112, 0.6674978000228293, 0.7844998000073247, 0.6167586999945343, 0.551361000048928, 0.4851778000011109, 0.5173090000171214, 0.5841360000194982, 0.551203400013037, 0.6326964999898337, 5.6175066999858245, 0.5166230000322685, 0.5671584000228904, 0.6171284000156447, 0.4845177000388503]",666,food,0,1,BR,1,2023-07-17_14h19.11.061,crystals,2022.2.4,60.085609964439804,
banana.jpg,stimuli/food/,stimuli/food/banana.jpg,0,0,0,0,0,47,47,10,,,,,133.12064609996742,133.5210129999905,3.4562500000000003,0.3839022000320256,48,"[1.6845920999767259, 0.8337809999939054, 0.7335125000099652, 4.218718499992974, 0.46825400000670925, 0.7669633000041358, 0.6345606000395492, 0.5502096999553032, 0.5015247000264935, 0.5334193000453524, 0.7168563000159338, 0.6876487000263296, 0.5503682999988087, 0.5345272999838926, 0.5345247999648564, 0.8503420000197366, 0.4698708000360057, 0.5337919000303373, 0.6480420000152662, 0.5011134000378661, 0.5681661000126041, 0.6837556999525987, 0.4674323999788612, 0.49752979999175295, 0.9178679999895394, 0.6360502000316046, 1.0179003999801353, 0.5163606000132859, 0.5520856999792159, 0.5167517999652773, 1.0605818000040017, 0.7157946999650449, 0.5516240999568254, 0.6674886000109836, 0.7844934000167996, 0.6167516999994405, 0.5513547000009567, 0.48517090000677854, 0.517302300024312, 0.5841294000274502, 0.5511981999734417, 0.6326906000031158, 5.617498899984639, 0.5166167000425048, 0.5671527999802493, 0.6171216000220738, 0.48451069998554885, 0.5179481999948621]","[1.6845968999550678, 0.8337862000335008, 0.7335207000141963, 4.218725099985022, 0.46826570003759116, 0.7669688999885693, 0.6345662000239827, 0.5502160000032745, 0.5015534000121988, 0.5334255000343546, 0.7168627000064589, 0.6876641000271775, 0.5503752999939024, 0.5345355999888852, 0.5345320000196807, 0.8503499000216834, 0.46987550001358613, 0.5337988000246696, 0.6480473999981768, 0.5011200000299141, 0.5681716999970376, 0.6837622000020929, 0.4674379000207409, 0.49753819999750704, 0.9178744999808259, 0.6360636000172235, 1.0179070999729447, 0.5163702999707311, 0.5520920000271872, 0.5167578000109643, 1.0605869999853894, 0.7158002999494784, 0.5516314000124112, 0.6674978000228293, 0.7844998000073247, 0.6167586999945343, 0.551361000048928, 0.4851778000011109, 0.5173090000171214, 0.5841360000194982, 0.551203400013037, 0.6326964999898337, 5.6175066999858245, 0.5166230000322685, 0.5671584000228904, 0.6171284000156447, 0.4845177000388503, 0.5179534999770112]",666,food,0,1,BR,1,2023-07-17_14h19.11.061,crystals,2022.2.4,60.085609964439804,
granola w milk.jpg,stimuli/food/,stimuli/food/granola w milk.jpg,0,0,0,0,0,48,48,28,,,,,134.58736129995668,135.02116179995937,2.5225,0.41654940001899377,49,"[1.6845920999767259, 0.8337809999939054, 0.7335125000099652, 4.218718499992974, 0.46825400000670925, 0.7669633000041358, 0.6345606000395492, 0.5502096999553032, 0.5015247000264935, 0.5334193000453524, 0.7168563000159338, 0.6876487000263296, 0.5503682999988087, 0.5345272999838926, 0.5345247999648564, 0.8503420000197366, 0.4698708000360057, 0.5337919000303373, 0.6480420000152662, 0.5011134000378661, 0.5681661000126041, 0.6837556999525987, 0.4674323999788612, 0.49752979999175295, 0.9178679999895394, 0.6360502000316046, 1.0179003999801353, 0.5163606000132859, 0.5520856999792159, 0.5167517999652773, 1.0605818000040017, 0.7157946999650449, 0.5516240999568254, 0.6674886000109836, 0.7844934000167996, 0.6167516999994405, 0.5513547000009567, 0.48517090000677854, 0.517302300024312, 0.5841294000274502, 0.5511981999734417, 0.6326906000031158, 5.617498899984639, 0.5166167000425048, 0.5671527999802493, 0.6171216000220738, 0.48451069998554885, 0.5179481999948621, 0.5013026000233367]","[1.6845968999550678, 0.8337862000335008, 0.7335207000141963, 4.218725099985022, 0.46826570003759116, 0.7669688999885693, 0.6345662000239827, 0.5502160000032745, 0.5015534000121988, 0.5334255000343546, 0.7168627000064589, 0.6876641000271775, 0.5503752999939024, 0.5345355999888852, 0.5345320000196807, 0.8503499000216834, 0.46987550001358613, 0.5337988000246696, 0.6480473999981768, 0.5011200000299141, 0.5681716999970376, 0.6837622000020929, 0.4674379000207409, 0.49753819999750704, 0.9178744999808259, 0.6360636000172235, 1.0179070999729447, 0.5163702999707311, 0.5520920000271872, 0.5167578000109643, 1.0605869999853894, 0.7158002999494784, 0.5516314000124112, 0.6674978000228293, 0.7844998000073247, 0.6167586999945343, 0.551361000048928, 0.4851778000011109, 0.5173090000171214, 0.5841360000194982, 0.551203400013037, 0.6326964999898337, 5.6175066999858245, 0.5166230000322685, 0.5671584000228904, 0.6171284000156447, 0.4845177000388503, 0.5179534999770112, 0.5013085000100546]",666,food,0,1,BR,1,2023-07-17_14h19.11.061,crystals,2022.2.4,60.085609964439804,
celery and carrot sticks.jpg,stimuli/food/,stimuli/food/celery and carrot sticks.jpg,0,0,0,0,0,49,49,14,,,,,136.07096919999458,136.58839910000097,1.23625,0.49343680002493784,50,"[1.6845920999767259, 0.8337809999939054, 0.7335125000099652, 4.218718499992974, 0.46825400000670925, 0.7669633000041358, 0.6345606000395492, 0.5502096999553032, 0.5015247000264935, 0.5334193000453524, 0.7168563000159338, 0.6876487000263296, 0.5503682999988087, 0.5345272999838926, 0.5345247999648564, 0.8503420000197366, 0.4698708000360057, 0.5337919000303373, 0.6480420000152662, 0.5011134000378661, 0.5681661000126041, 0.6837556999525987, 0.4674323999788612, 0.49752979999175295, 0.9178679999895394, 0.6360502000316046, 1.0179003999801353, 0.5163606000132859, 0.5520856999792159, 0.5167517999652773, 1.0605818000040017, 0.7157946999650449, 0.5516240999568254, 0.6674886000109836, 0.7844934000167996, 0.6167516999994405, 0.5513547000009567, 0.48517090000677854, 0.517302300024312, 0.5841294000274502, 0.5511981999734417, 0.6326906000031158, 5.617498899984639, 0.5166167000425048, 0.5671527999802493, 0.6171216000220738, 0.48451069998554885, 0.5179481999948621, 0.5013026000233367, 0.6501054000109434]","[1.6845968999550678, 0.8337862000335008, 0.7335207000141963, 4.218725099985022, 0.46826570003759116, 0.7669688999885693, 0.6345662000239827, 0.5502160000032745, 0.5015534000121988, 0.5334255000343546, 0.7168627000064589, 0.6876641000271775, 0.5503752999939024, 0.5345355999888852, 0.5345320000196807, 0.8503499000216834, 0.46987550001358613, 0.5337988000246696, 0.6480473999981768, 0.5011200000299141, 0.5681716999970376, 0.6837622000020929, 0.4674379000207409, 0.49753819999750704, 0.9178744999808259, 0.6360636000172235, 1.0179070999729447, 0.5163702999707311, 0.5520920000271872, 0.5167578000109643, 1.0605869999853894, 0.7158002999494784, 0.5516314000124112, 0.6674978000228293, 0.7844998000073247, 0.6167586999945343, 0.551361000048928, 0.4851778000011109, 0.5173090000171214, 0.5841360000194982, 0.551203400013037, 0.6326964999898337, 5.6175066999858245, 0.5166230000322685, 0.5671584000228904, 0.6171284000156447, 0.4845177000388503, 0.5179534999770112, 0.5013085000100546, 0.6501255999901332]",666,food,0,1,BR,1,2023-07-17_14h19.11.061,crystals,2022.2.4,60.085609964439804,
soy chips.jpg,stimuli/food/,stimuli/food/soy chips.jpg,0,0,0,0,0,50,50,63,,,,,137.77115409995895,138.45457989996066,2.305,0.6667058000457473,51,"[1.6845920999767259, 0.8337809999939054, 0.7335125000099652, 4.218718499992974, 0.46825400000670925, 0.7669633000041358, 0.6345606000395492, 0.5502096999553032, 0.5015247000264935, 0.5334193000453524, 0.7168563000159338, 0.6876487000263296, 0.5503682999988087, 0.5345272999838926, 0.5345247999648564, 0.8503420000197366, 0.4698708000360057, 0.5337919000303373, 0.6480420000152662, 0.5011134000378661, 0.5681661000126041, 0.6837556999525987, 0.4674323999788612, 0.49752979999175295, 0.9178679999895394, 0.6360502000316046, 1.0179003999801353, 0.5163606000132859, 0.5520856999792159, 0.5167517999652773, 1.0605818000040017, 0.7157946999650449, 0.5516240999568254, 0.6674886000109836, 0.7844934000167996, 0.6167516999994405, 0.5513547000009567, 0.48517090000677854, 0.517302300024312, 0.5841294000274502, 0.5511981999734417, 0.6326906000031158, 5.617498899984639, 0.5166167000425048, 0.5671527999802493, 0.6171216000220738, 0.48451069998554885, 0.5179481999948621, 0.5013026000233367, 0.6501054000109434, 0.5838857999769971]","[1.6845968999550678, 0.8337862000335008, 0.7335207000141963, 4.218725099985022, 0.46826570003759116, 0.7669688999885693, 0.6345662000239827, 0.5502160000032745, 0.5015534000121988, 0.5334255000343546, 0.7168627000064589, 0.6876641000271775, 0.5503752999939024, 0.5345355999888852, 0.5345320000196807, 0.8503499000216834, 0.46987550001358613, 0.5337988000246696, 0.6480473999981768, 0.5011200000299141, 0.5681716999970376, 0.6837622000020929, 0.4674379000207409, 0.49753819999750704, 0.9178744999808259, 0.6360636000172235, 1.0179070999729447, 0.5163702999707311, 0.5520920000271872, 0.5167578000109643, 1.0605869999853894, 0.7158002999494784, 0.5516314000124112, 0.6674978000228293, 0.7844998000073247, 0.6167586999945343, 0.551361000048928, 0.4851778000011109, 0.5173090000171214, 0.5841360000194982, 0.551203400013037, 0.6326964999898337, 5.6175066999858245, 0.5166230000322685, 0.5671584000228904, 0.6171284000156447, 0.4845177000388503, 0.5179534999770112, 0.5013085000100546, 0.6501255999901332, 0.5838927999720909]",666,food,0,1,BR,1,2023-07-17_14h19.11.061,crystals,2022.2.4,60.085609964439804,
rigatoni.jpg,stimuli/food/,stimuli/food/rigatoni.jpg,0,0,0,0,0,51,51,55,,,,,139.57100349996472,139.97086669999408,3.63625,0.38286889996379614,52,"[1.6845920999767259, 0.8337809999939054, 0.7335125000099652, 4.218718499992974, 0.46825400000670925, 0.7669633000041358, 0.6345606000395492, 0.5502096999553032, 0.5015247000264935, 0.5334193000453524, 0.7168563000159338, 0.6876487000263296, 0.5503682999988087, 0.5345272999838926, 0.5345247999648564, 0.8503420000197366, 0.4698708000360057, 0.5337919000303373, 0.6480420000152662, 0.5011134000378661, 0.5681661000126041, 0.6837556999525987, 0.4674323999788612, 0.49752979999175295, 0.9178679999895394, 0.6360502000316046, 1.0179003999801353, 0.5163606000132859, 0.5520856999792159, 0.5167517999652773, 1.0605818000040017, 0.7157946999650449, 0.5516240999568254, 0.6674886000109836, 0.7844934000167996, 0.6167516999994405, 0.5513547000009567, 0.48517090000677854, 0.517302300024312, 0.5841294000274502, 0.5511981999734417, 0.6326906000031158, 5.617498899984639, 0.5166167000425048, 0.5671527999802493, 0.6171216000220738, 0.48451069998554885, 0.5179481999948621, 0.5013026000233367, 0.6501054000109434, 0.5838857999769971, 0.9004842999856919]","[1.6845968999550678, 0.8337862000335008, 0.7335207000141963, 4.218725099985022, 0.46826570003759116, 0.7669688999885693, 0.6345662000239827, 0.5502160000032745, 0.5015534000121988, 0.5334255000343546, 0.7168627000064589, 0.6876641000271775, 0.5503752999939024, 0.5345355999888852, 0.5345320000196807, 0.8503499000216834, 0.46987550001358613, 0.5337988000246696, 0.6480473999981768, 0.5011200000299141, 0.5681716999970376, 0.6837622000020929, 0.4674379000207409, 0.49753819999750704, 0.9178744999808259, 0.6360636000172235, 1.0179070999729447, 0.5163702999707311, 0.5520920000271872, 0.5167578000109643, 1.0605869999853894, 0.7158002999494784, 0.5516314000124112, 0.6674978000228293, 0.7844998000073247, 0.6167586999945343, 0.551361000048928, 0.4851778000011109, 0.5173090000171214, 0.5841360000194982, 0.551203400013037, 0.6326964999898337, 5.6175066999858245, 0.5166230000322685, 0.5671584000228904, 0.6171284000156447, 0.4845177000388503, 0.5179534999770112, 0.5013085000100546, 0.6501255999901332, 0.5838927999720909, 0.9004907999769785]",666,food,0,1,BR,1,2023-07-17_14h19.11.061,crystals,2022.2.4,60.085609964439804,
sushi w_condiments.jpg,stimuli/food/,stimuli/food/sushi w_condiments.jpg,0,0,0,0,0,52,52,67,,,,,141.42083580000326,141.93759379995754,4.49125,0.5000083000049926,53,"[1.6845920999767259, 0.8337809999939054, 0.7335125000099652, 4.218718499992974, 0.46825400000670925, 0.7669633000041358, 0.6345606000395492, 0.5502096999553032, 0.5015247000264935, 0.5334193000453524, 0.7168563000159338, 0.6876487000263296, 0.5503682999988087, 0.5345272999838926, 0.5345247999648564, 0.8503420000197366, 0.4698708000360057, 0.5337919000303373, 0.6480420000152662, 0.5011134000378661, 0.5681661000126041, 0.6837556999525987, 0.4674323999788612, 0.49752979999175295, 0.9178679999895394, 0.6360502000316046, 1.0179003999801353, 0.5163606000132859, 0.5520856999792159, 0.5167517999652773, 1.0605818000040017, 0.7157946999650449, 0.5516240999568254, 0.6674886000109836, 0.7844934000167996, 0.6167516999994405, 0.5513547000009567, 0.48517090000677854, 0.517302300024312, 0.5841294000274502, 0.5511981999734417, 0.6326906000031158, 5.617498899984639, 0.5166167000425048, 0.5671527999802493, 0.6171216000220738, 0.48451069998554885, 0.5179481999948621, 0.5013026000233367, 0.6501054000109434, 0.5838857999769971, 0.9004842999856919, 0.4991980000049807]","[1.6845968999550678, 0.8337862000335008, 0.7335207000141963, 4.218725099985022, 0.46826570003759116, 0.7669688999885693, 0.6345662000239827, 0.5502160000032745, 0.5015534000121988, 0.5334255000343546, 0.7168627000064589, 0.6876641000271775, 0.5503752999939024, 0.5345355999888852, 0.5345320000196807, 0.8503499000216834, 0.46987550001358613, 0.5337988000246696, 0.6480473999981768, 0.5011200000299141, 0.5681716999970376, 0.6837622000020929, 0.4674379000207409, 0.49753819999750704, 0.9178744999808259, 0.6360636000172235, 1.0179070999729447, 0.5163702999707311, 0.5520920000271872, 0.5167578000109643, 1.0605869999853894, 0.7158002999494784, 0.5516314000124112, 0.6674978000228293, 0.7844998000073247, 0.6167586999945343, 0.551361000048928, 0.4851778000011109, 0.5173090000171214, 0.5841360000194982, 0.551203400013037, 0.6326964999898337, 5.6175066999858245, 0.5166230000322685, 0.5671584000228904, 0.6171284000156447, 0.4845177000388503, 0.5179534999770112, 0.5013085000100546, 0.6501255999901332, 0.5838927999720909, 0.9004907999769785, 0.4992047999985516]",666,food,0,1,BR,1,2023-07-17_14h19.11.061,crystals,2022.2.4,60.085609964439804,
mozarella sticks.jpg,stimuli/food/,stimuli/food/mozarella sticks.jpg,0,0,0,0,0,53,53,42,,,,,142.95384799997555,143.32133710000198,5.29375,0.35100869997404516,54,"[1.6845920999767259, 0.8337809999939054, 0.7335125000099652, 4.218718499992974, 0.46825400000670925, 0.7669633000041358, 0.6345606000395492, 0.5502096999553032, 0.5015247000264935, 0.5334193000453524, 0.7168563000159338, 0.6876487000263296, 0.5503682999988087, 0.5345272999838926, 0.5345247999648564, 0.8503420000197366, 0.4698708000360057, 0.5337919000303373, 0.6480420000152662, 0.5011134000378661, 0.5681661000126041, 0.6837556999525987, 0.4674323999788612, 0.49752979999175295, 0.9178679999895394, 0.6360502000316046, 1.0179003999801353, 0.5163606000132859, 0.5520856999792159, 0.5167517999652773, 1.0605818000040017, 0.7157946999650449, 0.5516240999568254, 0.6674886000109836, 0.7844934000167996, 0.6167516999994405, 0.5513547000009567, 0.48517090000677854, 0.517302300024312, 0.5841294000274502, 0.5511981999734417, 0.6326906000031158, 5.617498899984639, 0.5166167000425048, 0.5671527999802493, 0.6171216000220738, 0.48451069998554885, 0.5179481999948621, 0.5013026000233367, 0.6501054000109434, 0.5838857999769971, 0.9004842999856919, 0.4991980000049807, 0.5685393000021577]","[1.6845968999550678, 0.8337862000335008, 0.7335207000141963, 4.218725099985022, 0.46826570003759116, 0.7669688999885693, 0.6345662000239827, 0.5502160000032745, 0.5015534000121988, 0.5334255000343546, 0.7168627000064589, 0.6876641000271775, 0.5503752999939024, 0.5345355999888852, 0.5345320000196807, 0.8503499000216834, 0.46987550001358613, 0.5337988000246696, 0.6480473999981768, 0.5011200000299141, 0.5681716999970376, 0.6837622000020929, 0.4674379000207409, 0.49753819999750704, 0.9178744999808259, 0.6360636000172235, 1.0179070999729447, 0.5163702999707311, 0.5520920000271872, 0.5167578000109643, 1.0605869999853894, 0.7158002999494784, 0.5516314000124112, 0.6674978000228293, 0.7844998000073247, 0.6167586999945343, 0.551361000048928, 0.4851778000011109, 0.5173090000171214, 0.5841360000194982, 0.551203400013037, 0.6326964999898337, 5.6175066999858245, 0.5166230000322685, 0.5671584000228904, 0.6171284000156447, 0.4845177000388503, 0.5179534999770112, 0.5013085000100546, 0.6501255999901332, 0.5838927999720909, 0.9004907999769785, 0.4992047999985516, 0.5685454999911599]",666,food,0,1,BR,1,2023-07-17_14h19.11.061,crystals,2022.2.4,60.085609964439804,
cherry tomato.jpg,stimuli/food/,stimuli/food/cherry tomato.jpg,0,0,0,0,0,54,54,17,,,,,144.43758530000923,144.8879442999605,6.50875,0.41777770000044256,55,"[1.6845920999767259, 0.8337809999939054, 0.7335125000099652, 4.218718499992974, 0.46825400000670925, 0.7669633000041358, 0.6345606000395492, 0.5502096999553032, 0.5015247000264935, 0.5334193000453524, 0.7168563000159338, 0.6876487000263296, 0.5503682999988087, 0.5345272999838926, 0.5345247999648564, 0.8503420000197366, 0.4698708000360057, 0.5337919000303373, 0.6480420000152662, 0.5011134000378661, 0.5681661000126041, 0.6837556999525987, 0.4674323999788612, 0.49752979999175295, 0.9178679999895394, 0.6360502000316046, 1.0179003999801353, 0.5163606000132859, 0.5520856999792159, 0.5167517999652773, 1.0605818000040017, 0.7157946999650449, 0.5516240999568254, 0.6674886000109836, 0.7844934000167996, 0.6167516999994405, 0.5513547000009567, 0.48517090000677854, 0.517302300024312, 0.5841294000274502, 0.5511981999734417, 0.6326906000031158, 5.617498899984639, 0.5166167000425048, 0.5671527999802493, 0.6171216000220738, 0.48451069998554885, 0.5179481999948621, 0.5013026000233367, 0.6501054000109434, 0.5838857999769971, 0.9004842999856919, 0.4991980000049807, 0.5685393000021577, 0.5675086999544874]","[1.6845968999550678, 0.8337862000335008, 0.7335207000141963, 4.218725099985022, 0.46826570003759116, 0.7669688999885693, 0.6345662000239827, 0.5502160000032745, 0.5015534000121988, 0.5334255000343546, 0.7168627000064589, 0.6876641000271775, 0.5503752999939024, 0.5345355999888852, 0.5345320000196807, 0.8503499000216834, 0.46987550001358613, 0.5337988000246696, 0.6480473999981768, 0.5011200000299141, 0.5681716999970376, 0.6837622000020929, 0.4674379000207409, 0.49753819999750704, 0.9178744999808259, 0.6360636000172235, 1.0179070999729447, 0.5163702999707311, 0.5520920000271872, 0.5167578000109643, 1.0605869999853894, 0.7158002999494784, 0.5516314000124112, 0.6674978000228293, 0.7844998000073247, 0.6167586999945343, 0.551361000048928, 0.4851778000011109, 0.5173090000171214, 0.5841360000194982, 0.551203400013037, 0.6326964999898337, 5.6175066999858245, 0.5166230000322685, 0.5671584000228904, 0.6171284000156447, 0.4845177000388503, 0.5179534999770112, 0.5013085000100546, 0.6501255999901332, 0.5838927999720909, 0.9004907999769785, 0.4992047999985516, 0.5685454999911599, 0.5675162999541499]",666,food,0,1,BR,1,2023-07-17_14h19.11.061,crystals,2022.2.4,60.085609964439804,
raisins.jpg,stimuli/food/,stimuli/food/raisins.jpg,0,0,0,0,0,55,55,51,,,,,146.03079379996052,146.90437699999893,7.39,0.8928478000452742,56,"[1.6845920999767259, 0.8337809999939054, 0.7335125000099652, 4.218718499992974, 0.46825400000670925, 0.7669633000041358, 0.6345606000395492, 0.5502096999553032, 0.5015247000264935, 0.5334193000453524, 0.7168563000159338, 0.6876487000263296, 0.5503682999988087, 0.5345272999838926, 0.5345247999648564, 0.8503420000197366, 0.4698708000360057, 0.5337919000303373, 0.6480420000152662, 0.5011134000378661, 0.5681661000126041, 0.6837556999525987, 0.4674323999788612, 0.49752979999175295, 0.9178679999895394, 0.6360502000316046, 1.0179003999801353, 0.5163606000132859, 0.5520856999792159, 0.5167517999652773, 1.0605818000040017, 0.7157946999650449, 0.5516240999568254, 0.6674886000109836, 0.7844934000167996, 0.6167516999994405, 0.5513547000009567, 0.48517090000677854, 0.517302300024312, 0.5841294000274502, 0.5511981999734417, 0.6326906000031158, 5.617498899984639, 0.5166167000425048, 0.5671527999802493, 0.6171216000220738, 0.48451069998554885, 0.5179481999948621, 0.5013026000233367, 0.6501054000109434, 0.5838857999769971, 0.9004842999856919, 0.4991980000049807, 0.5685393000021577, 0.5675086999544874, 0.6667796000256203]","[1.6845968999550678, 0.8337862000335008, 0.7335207000141963, 4.218725099985022, 0.46826570003759116, 0.7669688999885693, 0.6345662000239827, 0.5502160000032745, 0.5015534000121988, 0.5334255000343546, 0.7168627000064589, 0.6876641000271775, 0.5503752999939024, 0.5345355999888852, 0.5345320000196807, 0.8503499000216834, 0.46987550001358613, 0.5337988000246696, 0.6480473999981768, 0.5011200000299141, 0.5681716999970376, 0.6837622000020929, 0.4674379000207409, 0.49753819999750704, 0.9178744999808259, 0.6360636000172235, 1.0179070999729447, 0.5163702999707311, 0.5520920000271872, 0.5167578000109643, 1.0605869999853894, 0.7158002999494784, 0.5516314000124112, 0.6674978000228293, 0.7844998000073247, 0.6167586999945343, 0.551361000048928, 0.4851778000011109, 0.5173090000171214, 0.5841360000194982, 0.551203400013037, 0.6326964999898337, 5.6175066999858245, 0.5166230000322685, 0.5671584000228904, 0.6171284000156447, 0.4845177000388503, 0.5179534999770112, 0.5013085000100546, 0.6501255999901332, 0.5838927999720909, 0.9004907999769785, 0.4992047999985516, 0.5685454999911599, 0.5675162999541499, 0.6667882000328973]",666,food,0,1,BR,1,2023-07-17_14h19.11.061,crystals,2022.2.4,60.085609964439804,
Whole milk.jpg,stimuli/food/,stimuli/food/Whole milk.jpg,0,0,0,0,0,56,56,72,,,,,148.1043830999988,149.23837809998076,8.515,1.1169462999678217,57,"[1.6845920999767259, 0.8337809999939054, 0.7335125000099652, 4.218718499992974, 0.46825400000670925, 0.7669633000041358, 0.6345606000395492, 0.5502096999553032, 0.5015247000264935, 0.5334193000453524, 0.7168563000159338, 0.6876487000263296, 0.5503682999988087, 0.5345272999838926, 0.5345247999648564, 0.8503420000197366, 0.4698708000360057, 0.5337919000303373, 0.6480420000152662, 0.5011134000378661, 0.5681661000126041, 0.6837556999525987, 0.4674323999788612, 0.49752979999175295, 0.9178679999895394, 0.6360502000316046, 1.0179003999801353, 0.5163606000132859, 0.5520856999792159, 0.5167517999652773, 1.0605818000040017, 0.7157946999650449, 0.5516240999568254, 0.6674886000109836, 0.7844934000167996, 0.6167516999994405, 0.5513547000009567, 0.48517090000677854, 0.517302300024312, 0.5841294000274502, 0.5511981999734417, 0.6326906000031158, 5.617498899984639, 0.5166167000425048, 0.5671527999802493, 0.6171216000220738, 0.48451069998554885, 0.5179481999948621, 0.5013026000233367, 0.6501054000109434, 0.5838857999769971, 0.9004842999856919, 0.4991980000049807, 0.5685393000021577, 0.5675086999544874, 0.6667796000256203, 0.550470799964387]","[1.6845968999550678, 0.8337862000335008, 0.7335207000141963, 4.218725099985022, 0.46826570003759116, 0.7669688999885693, 0.6345662000239827, 0.5502160000032745, 0.5015534000121988, 0.5334255000343546, 0.7168627000064589, 0.6876641000271775, 0.5503752999939024, 0.5345355999888852, 0.5345320000196807, 0.8503499000216834, 0.46987550001358613, 0.5337988000246696, 0.6480473999981768, 0.5011200000299141, 0.5681716999970376, 0.6837622000020929, 0.4674379000207409, 0.49753819999750704, 0.9178744999808259, 0.6360636000172235, 1.0179070999729447, 0.5163702999707311, 0.5520920000271872, 0.5167578000109643, 1.0605869999853894, 0.7158002999494784, 0.5516314000124112, 0.6674978000228293, 0.7844998000073247, 0.6167586999945343, 0.551361000048928, 0.4851778000011109, 0.5173090000171214, 0.5841360000194982, 0.551203400013037, 0.6326964999898337, 5.6175066999858245, 0.5166230000322685, 0.5671584000228904, 0.6171284000156447, 0.4845177000388503, 0.5179534999770112, 0.5013085000100546, 0.6501255999901332, 0.5838927999720909, 0.9004907999769785, 0.4992047999985516, 0.5685454999911599, 0.5675162999541499, 0.6667882000328973, 0.5504770000115968]",666,food,0,1,BR,1,2023-07-17_14h19.11.061,crystals,2022.2.4,60.085609964439804,
Tribe humus pita.jpg,stimuli/food/,stimuli/food/Tribe humus pita.jpg,0,0,0,0,0,57,57,70,,,,,150.33781489997637,151.0381129999878,9.44875,0.6837278000311926,58,"[1.6845920999767259, 0.8337809999939054, 0.7335125000099652, 4.218718499992974, 0.46825400000670925, 0.7669633000041358, 0.6345606000395492, 0.5502096999553032, 0.5015247000264935, 0.5334193000453524, 0.7168563000159338, 0.6876487000263296, 0.5503682999988087, 0.5345272999838926, 0.5345247999648564, 0.8503420000197366, 0.4698708000360057, 0.5337919000303373, 0.6480420000152662, 0.5011134000378661, 0.5681661000126041, 0.6837556999525987, 0.4674323999788612, 0.49752979999175295, 0.9178679999895394, 0.6360502000316046, 1.0179003999801353, 0.5163606000132859, 0.5520856999792159, 0.5167517999652773, 1.0605818000040017, 0.7157946999650449, 0.5516240999568254, 0.6674886000109836, 0.7844934000167996, 0.6167516999994405, 0.5513547000009567, 0.48517090000677854, 0.517302300024312, 0.5841294000274502, 0.5511981999734417, 0.6326906000031158, 5.617498899984639, 0.5166167000425048, 0.5671527999802493, 0.6171216000220738, 0.48451069998554885, 0.5179481999948621, 0.5013026000233367, 0.6501054000109434, 0.5838857999769971, 0.9004842999856919, 0.4991980000049807, 0.5685393000021577, 0.5675086999544874, 0.6667796000256203, 0.550470799964387, 0.6170491999946535]","[1.6845968999550678, 0.8337862000335008, 0.7335207000141963, 4.218725099985022, 0.46826570003759116, 0.7669688999885693, 0.6345662000239827, 0.5502160000032745, 0.5015534000121988, 0.5334255000343546, 0.7168627000064589, 0.6876641000271775, 0.5503752999939024, 0.5345355999888852, 0.5345320000196807, 0.8503499000216834, 0.46987550001358613, 0.5337988000246696, 0.6480473999981768, 0.5011200000299141, 0.5681716999970376, 0.6837622000020929, 0.4674379000207409, 0.49753819999750704, 0.9178744999808259, 0.6360636000172235, 1.0179070999729447, 0.5163702999707311, 0.5520920000271872, 0.5167578000109643, 1.0605869999853894, 0.7158002999494784, 0.5516314000124112, 0.6674978000228293, 0.7844998000073247, 0.6167586999945343, 0.551361000048928, 0.4851778000011109, 0.5173090000171214, 0.5841360000194982, 0.551203400013037, 0.6326964999898337, 5.6175066999858245, 0.5166230000322685, 0.5671584000228904, 0.6171284000156447, 0.4845177000388503, 0.5179534999770112, 0.5013085000100546, 0.6501255999901332, 0.5838927999720909, 0.9004907999769785, 0.4992047999985516, 0.5685454999911599, 0.5675162999541499, 0.6667882000328973, 0.5504770000115968, 0.6170545999775641]",666,food,0,1,BR,1,2023-07-17_14h19.11.061,crystals,2022.2.4,60.085609964439804,
american cheese.jpg,stimuli/food/,stimuli/food/american cheese.jpg,0,0,0,0,0,58,58,2,,,,,152.18837019999046,152.72150069999043,8.271249999999998,0.5156857999972999,59,"[1.6845920999767259, 0.8337809999939054, 0.7335125000099652, 4.218718499992974, 0.46825400000670925, 0.7669633000041358, 0.6345606000395492, 0.5502096999553032, 0.5015247000264935, 0.5334193000453524, 0.7168563000159338, 0.6876487000263296, 0.5503682999988087, 0.5345272999838926, 0.5345247999648564, 0.8503420000197366, 0.4698708000360057, 0.5337919000303373, 0.6480420000152662, 0.5011134000378661, 0.5681661000126041, 0.6837556999525987, 0.4674323999788612, 0.49752979999175295, 0.9178679999895394, 0.6360502000316046, 1.0179003999801353, 0.5163606000132859, 0.5520856999792159, 0.5167517999652773, 1.0605818000040017, 0.7157946999650449, 0.5516240999568254, 0.6674886000109836, 0.7844934000167996, 0.6167516999994405, 0.5513547000009567, 0.48517090000677854, 0.517302300024312, 0.5841294000274502, 0.5511981999734417, 0.6326906000031158, 5.617498899984639, 0.5166167000425048, 0.5671527999802493, 0.6171216000220738, 0.48451069998554885, 0.5179481999948621, 0.5013026000233367, 0.6501054000109434, 0.5838857999769971, 0.9004842999856919, 0.4991980000049807, 0.5685393000021577, 0.5675086999544874, 0.6667796000256203, 0.550470799964387, 0.6170491999946535, 0.534815399965737]","[1.6845968999550678, 0.8337862000335008, 0.7335207000141963, 4.218725099985022, 0.46826570003759116, 0.7669688999885693, 0.6345662000239827, 0.5502160000032745, 0.5015534000121988, 0.5334255000343546, 0.7168627000064589, 0.6876641000271775, 0.5503752999939024, 0.5345355999888852, 0.5345320000196807, 0.8503499000216834, 0.46987550001358613, 0.5337988000246696, 0.6480473999981768, 0.5011200000299141, 0.5681716999970376, 0.6837622000020929, 0.4674379000207409, 0.49753819999750704, 0.9178744999808259, 0.6360636000172235, 1.0179070999729447, 0.5163702999707311, 0.5520920000271872, 0.5167578000109643, 1.0605869999853894, 0.7158002999494784, 0.5516314000124112, 0.6674978000228293, 0.7844998000073247, 0.6167586999945343, 0.551361000048928, 0.4851778000011109, 0.5173090000171214, 0.5841360000194982, 0.551203400013037, 0.6326964999898337, 5.6175066999858245, 0.5166230000322685, 0.5671584000228904, 0.6171284000156447, 0.4845177000388503, 0.5179534999770112, 0.5013085000100546, 0.6501255999901332, 0.5838927999720909, 0.9004907999769785, 0.4992047999985516, 0.5685454999911599, 0.5675162999541499, 0.6667882000328973, 0.5504770000115968, 0.6170545999775641, 0.5348231999669224]",666,food,0,1,BR,1,2023-07-17_14h19.11.061,crystals,2022.2.4,60.085609964439804,
saltines.jpg,stimuli/food/,stimuli/food/saltines.jpg,0,0,0,0,0,59,59,58,,,,,153.81031490000896,154.22138369997265,7.401249999999999,0.41623890004120767,60,"[1.6845920999767259, 0.8337809999939054, 0.7335125000099652, 4.218718499992974, 0.46825400000670925, 0.7669633000041358, 0.6345606000395492, 0.5502096999553032, 0.5015247000264935, 0.5334193000453524, 0.7168563000159338, 0.6876487000263296, 0.5503682999988087, 0.5345272999838926, 0.5345247999648564, 0.8503420000197366, 0.4698708000360057, 0.5337919000303373, 0.6480420000152662, 0.5011134000378661, 0.5681661000126041, 0.6837556999525987, 0.4674323999788612, 0.49752979999175295, 0.9178679999895394, 0.6360502000316046, 1.0179003999801353, 0.5163606000132859, 0.5520856999792159, 0.5167517999652773, 1.0605818000040017, 0.7157946999650449, 0.5516240999568254, 0.6674886000109836, 0.7844934000167996, 0.6167516999994405, 0.5513547000009567, 0.48517090000677854, 0.517302300024312, 0.5841294000274502, 0.5511981999734417, 0.6326906000031158, 5.617498899984639, 0.5166167000425048, 0.5671527999802493, 0.6171216000220738, 0.48451069998554885, 0.5179481999948621, 0.5013026000233367, 0.6501054000109434, 0.5838857999769971, 0.9004842999856919, 0.4991980000049807, 0.5685393000021577, 0.5675086999544874, 0.6667796000256203, 0.550470799964387, 0.6170491999946535, 0.534815399965737, 0.7516845000209287]","[1.6845968999550678, 0.8337862000335008, 0.7335207000141963, 4.218725099985022, 0.46826570003759116, 0.7669688999885693, 0.6345662000239827, 0.5502160000032745, 0.5015534000121988, 0.5334255000343546, 0.7168627000064589, 0.6876641000271775, 0.5503752999939024, 0.5345355999888852, 0.5345320000196807, 0.8503499000216834, 0.46987550001358613, 0.5337988000246696, 0.6480473999981768, 0.5011200000299141, 0.5681716999970376, 0.6837622000020929, 0.4674379000207409, 0.49753819999750704, 0.9178744999808259, 0.6360636000172235, 1.0179070999729447, 0.5163702999707311, 0.5520920000271872, 0.5167578000109643, 1.0605869999853894, 0.7158002999494784, 0.5516314000124112, 0.6674978000228293, 0.7844998000073247, 0.6167586999945343, 0.551361000048928, 0.4851778000011109, 0.5173090000171214, 0.5841360000194982, 0.551203400013037, 0.6326964999898337, 5.6175066999858245, 0.5166230000322685, 0.5671584000228904, 0.6171284000156447, 0.4845177000388503, 0.5179534999770112, 0.5013085000100546, 0.6501255999901332, 0.5838927999720909, 0.9004907999769785, 0.4992047999985516, 0.5685454999911599, 0.5675162999541499, 0.6667882000328973, 0.5504770000115968, 0.6170545999775641, 0.5348231999669224, 0.7516892999992706]",666,food,0,1,BR,1,2023-07-17_14h19.11.061,crystals,2022.2.4,60.085609964439804,
kiwi.jpg,stimuli/food/,stimuli/food/kiwi.jpg,0,0,0,0,0,60,60,36,,,,,155.50471429998288,156.03805309999734,6.647499999999999,0.5164624999742955,61,"[1.6845920999767259, 0.8337809999939054, 0.7335125000099652, 4.218718499992974, 0.46825400000670925, 0.7669633000041358, 0.6345606000395492, 0.5502096999553032, 0.5015247000264935, 0.5334193000453524, 0.7168563000159338, 0.6876487000263296, 0.5503682999988087, 0.5345272999838926, 0.5345247999648564, 0.8503420000197366, 0.4698708000360057, 0.5337919000303373, 0.6480420000152662, 0.5011134000378661, 0.5681661000126041, 0.6837556999525987, 0.4674323999788612, 0.49752979999175295, 0.9178679999895394, 0.6360502000316046, 1.0179003999801353, 0.5163606000132859, 0.5520856999792159, 0.5167517999652773, 1.0605818000040017, 0.7157946999650449, 0.5516240999568254, 0.6674886000109836, 0.7844934000167996, 0.6167516999994405, 0.5513547000009567, 0.48517090000677854, 0.517302300024312, 0.5841294000274502, 0.5511981999734417, 0.6326906000031158, 5.617498899984639, 0.5166167000425048, 0.5671527999802493, 0.6171216000220738, 0.48451069998554885, 0.5179481999948621, 0.5013026000233367, 0.6501054000109434, 0.5838857999769971, 0.9004842999856919, 0.4991980000049807, 0.5685393000021577, 0.5675086999544874, 0.6667796000256203, 0.550470799964387, 0.6170491999946535, 0.534815399965737, 0.7516845000209287, 0.48516229999950156]","[1.6845968999550678, 0.8337862000335008, 0.7335207000141963, 4.218725099985022, 0.46826570003759116, 0.7669688999885693, 0.6345662000239827, 0.5502160000032745, 0.5015534000121988, 0.5334255000343546, 0.7168627000064589, 0.6876641000271775, 0.5503752999939024, 0.5345355999888852, 0.5345320000196807, 0.8503499000216834, 0.46987550001358613, 0.5337988000246696, 0.6480473999981768, 0.5011200000299141, 0.5681716999970376, 0.6837622000020929, 0.4674379000207409, 0.49753819999750704, 0.9178744999808259, 0.6360636000172235, 1.0179070999729447, 0.5163702999707311, 0.5520920000271872, 0.5167578000109643, 1.0605869999853894, 0.7158002999494784, 0.5516314000124112, 0.6674978000228293, 0.7844998000073247, 0.6167586999945343, 0.551361000048928, 0.4851778000011109, 0.5173090000171214, 0.5841360000194982, 0.551203400013037, 0.6326964999898337, 5.6175066999858245, 0.5166230000322685, 0.5671584000228904, 0.6171284000156447, 0.4845177000388503, 0.5179534999770112, 0.5013085000100546, 0.6501255999901332, 0.5838927999720909, 0.9004907999769785, 0.4992047999985516, 0.5685454999911599, 0.5675162999541499, 0.6667882000328973, 0.5504770000115968, 0.6170545999775641, 0.5348231999669224, 0.7516892999992706, 0.4851691999938339]",666,food,0,1,BR,1,2023-07-17_14h19.11.061,crystals,2022.2.4,60.085609964439804,
ice cream sundae 002.jpg,stimuli/food/,stimuli/food/ice cream sundae 002.jpg,0,0,0,0,0,61,61,35,,,,,157.47466539999004,157.97183279995807,5.71375,0.8827893999987282,62,"[1.6845920999767259, 0.8337809999939054, 0.7335125000099652, 4.218718499992974, 0.46825400000670925, 0.7669633000041358, 0.6345606000395492, 0.5502096999553032, 0.5015247000264935, 0.5334193000453524, 0.7168563000159338, 0.6876487000263296, 0.5503682999988087, 0.5345272999838926, 0.5345247999648564, 0.8503420000197366, 0.4698708000360057, 0.5337919000303373, 0.6480420000152662, 0.5011134000378661, 0.5681661000126041, 0.6837556999525987, 0.4674323999788612, 0.49752979999175295, 0.9178679999895394, 0.6360502000316046, 1.0179003999801353, 0.5163606000132859, 0.5520856999792159, 0.5167517999652773, 1.0605818000040017, 0.7157946999650449, 0.5516240999568254, 0.6674886000109836, 0.7844934000167996, 0.6167516999994405, 0.5513547000009567, 0.48517090000677854, 0.517302300024312, 0.5841294000274502, 0.5511981999734417, 0.6326906000031158, 5.617498899984639, 0.5166167000425048, 0.5671527999802493, 0.6171216000220738, 0.48451069998554885, 0.5179481999948621, 0.5013026000233367, 0.6501054000109434, 0.5838857999769971, 0.9004842999856919, 0.4991980000049807, 0.5685393000021577, 0.5675086999544874, 0.6667796000256203, 0.550470799964387, 0.6170491999946535, 0.534815399965737, 0.7516845000209287, 0.48516229999950156, 0.48560930002713576]","[1.6845968999550678, 0.8337862000335008, 0.7335207000141963, 4.218725099985022, 0.46826570003759116, 0.7669688999885693, 0.6345662000239827, 0.5502160000032745, 0.5015534000121988, 0.5334255000343546, 0.7168627000064589, 0.6876641000271775, 0.5503752999939024, 0.5345355999888852, 0.5345320000196807, 0.8503499000216834, 0.46987550001358613, 0.5337988000246696, 0.6480473999981768, 0.5011200000299141, 0.5681716999970376, 0.6837622000020929, 0.4674379000207409, 0.49753819999750704, 0.9178744999808259, 0.6360636000172235, 1.0179070999729447, 0.5163702999707311, 0.5520920000271872, 0.5167578000109643, 1.0605869999853894, 0.7158002999494784, 0.5516314000124112, 0.6674978000228293, 0.7844998000073247, 0.6167586999945343, 0.551361000048928, 0.4851778000011109, 0.5173090000171214, 0.5841360000194982, 0.551203400013037, 0.6326964999898337, 5.6175066999858245, 0.5166230000322685, 0.5671584000228904, 0.6171284000156447, 0.4845177000388503, 0.5179534999770112, 0.5013085000100546, 0.6501255999901332, 0.5838927999720909, 0.9004907999769785, 0.4992047999985516, 0.5685454999911599, 0.5675162999541499, 0.6667882000328973, 0.5504770000115968, 0.6170545999775641, 0.5348231999669224, 0.7516892999992706, 0.4851691999938339, 0.4856162000214681]",666,food,0,1,BR,1,2023-07-17_14h19.11.061,crystals,2022.2.4,60.085609964439804,
tacos.jpg,stimuli/food/,stimuli/food/tacos.jpg,0,0,0,0,0,62,62,68,,,,,158.98868969996693,159.53939709998667,4.536250000000001,0.53523259999929,63,"[1.6845920999767259, 0.8337809999939054, 0.7335125000099652, 4.218718499992974, 0.46825400000670925, 0.7669633000041358, 0.6345606000395492, 0.5502096999553032, 0.5015247000264935, 0.5334193000453524, 0.7168563000159338, 0.6876487000263296, 0.5503682999988087, 0.5345272999838926, 0.5345247999648564, 0.8503420000197366, 0.4698708000360057, 0.5337919000303373, 0.6480420000152662, 0.5011134000378661, 0.5681661000126041, 0.6837556999525987, 0.4674323999788612, 0.49752979999175295, 0.9178679999895394, 0.6360502000316046, 1.0179003999801353, 0.5163606000132859, 0.5520856999792159, 0.5167517999652773, 1.0605818000040017, 0.7157946999650449, 0.5516240999568254, 0.6674886000109836, 0.7844934000167996, 0.6167516999994405, 0.5513547000009567, 0.48517090000677854, 0.517302300024312, 0.5841294000274502, 0.5511981999734417, 0.6326906000031158, 5.617498899984639, 0.5166167000425048, 0.5671527999802493, 0.6171216000220738, 0.48451069998554885, 0.5179481999948621, 0.5013026000233367, 0.6501054000109434, 0.5838857999769971, 0.9004842999856919, 0.4991980000049807, 0.5685393000021577, 0.5675086999544874, 0.6667796000256203, 0.550470799964387, 0.6170491999946535, 0.534815399965737, 0.7516845000209287, 0.48516229999950156, 0.48560930002713576, 0.5023998000542633]","[1.6845968999550678, 0.8337862000335008, 0.7335207000141963, 4.218725099985022, 0.46826570003759116, 0.7669688999885693, 0.6345662000239827, 0.5502160000032745, 0.5015534000121988, 0.5334255000343546, 0.7168627000064589, 0.6876641000271775, 0.5503752999939024, 0.5345355999888852, 0.5345320000196807, 0.8503499000216834, 0.46987550001358613, 0.5337988000246696, 0.6480473999981768, 0.5011200000299141, 0.5681716999970376, 0.6837622000020929, 0.4674379000207409, 0.49753819999750704, 0.9178744999808259, 0.6360636000172235, 1.0179070999729447, 0.5163702999707311, 0.5520920000271872, 0.5167578000109643, 1.0605869999853894, 0.7158002999494784, 0.5516314000124112, 0.6674978000228293, 0.7844998000073247, 0.6167586999945343, 0.551361000048928, 0.4851778000011109, 0.5173090000171214, 0.5841360000194982, 0.551203400013037, 0.6326964999898337, 5.6175066999858245, 0.5166230000322685, 0.5671584000228904, 0.6171284000156447, 0.4845177000388503, 0.5179534999770112, 0.5013085000100546, 0.6501255999901332, 0.5838927999720909, 0.9004907999769785, 0.4992047999985516, 0.5685454999911599, 0.5675162999541499, 0.6667882000328973, 0.5504770000115968, 0.6170545999775641, 0.5348231999669224, 0.7516892999992706, 0.4851691999938339, 0.4856162000214681, 0.5024048000341281]",666,food,0,1,BR,1,2023-07-17_14h19.11.061,crystals,2022.2.4,60.085609964439804,
froot loops w milk.jpg,stimuli/food/,stimuli/food/froot loops w milk.jpg,0,0,0,0,0,63,63,27,,,,,160.57149830000708,161.03902719996404,3.5875,0.45005919999675825,64,"[1.6845920999767259, 0.8337809999939054, 0.7335125000099652, 4.218718499992974, 0.46825400000670925, 0.7669633000041358, 0.6345606000395492, 0.5502096999553032, 0.5015247000264935, 0.5334193000453524, 0.7168563000159338, 0.6876487000263296, 0.5503682999988087, 0.5345272999838926, 0.5345247999648564, 0.8503420000197366, 0.4698708000360057, 0.5337919000303373, 0.6480420000152662, 0.5011134000378661, 0.5681661000126041, 0.6837556999525987, 0.4674323999788612, 0.49752979999175295, 0.9178679999895394, 0.6360502000316046, 1.0179003999801353, 0.5163606000132859, 0.5520856999792159, 0.5167517999652773, 1.0605818000040017, 0.7157946999650449, 0.5516240999568254, 0.6674886000109836, 0.7844934000167996, 0.6167516999994405, 0.5513547000009567, 0.48517090000677854, 0.517302300024312, 0.5841294000274502, 0.5511981999734417, 0.6326906000031158, 5.617498899984639, 0.5166167000425048, 0.5671527999802493, 0.6171216000220738, 0.48451069998554885, 0.5179481999948621, 0.5013026000233367, 0.6501054000109434, 0.5838857999769971, 0.9004842999856919, 0.4991980000049807, 0.5685393000021577, 0.5675086999544874, 0.6667796000256203, 0.550470799964387, 0.6170491999946535, 0.534815399965737, 0.7516845000209287, 0.48516229999950156, 0.48560930002713576, 0.5023998000542633, 0.5167229999788105]","[1.6845968999550678, 0.8337862000335008, 0.7335207000141963, 4.218725099985022, 0.46826570003759116, 0.7669688999885693, 0.6345662000239827, 0.5502160000032745, 0.5015534000121988, 0.5334255000343546, 0.7168627000064589, 0.6876641000271775, 0.5503752999939024, 0.5345355999888852, 0.5345320000196807, 0.8503499000216834, 0.46987550001358613, 0.5337988000246696, 0.6480473999981768, 0.5011200000299141, 0.5681716999970376, 0.6837622000020929, 0.4674379000207409, 0.49753819999750704, 0.9178744999808259, 0.6360636000172235, 1.0179070999729447, 0.5163702999707311, 0.5520920000271872, 0.5167578000109643, 1.0605869999853894, 0.7158002999494784, 0.5516314000124112, 0.6674978000228293, 0.7844998000073247, 0.6167586999945343, 0.551361000048928, 0.4851778000011109, 0.5173090000171214, 0.5841360000194982, 0.551203400013037, 0.6326964999898337, 5.6175066999858245, 0.5166230000322685, 0.5671584000228904, 0.6171284000156447, 0.4845177000388503, 0.5179534999770112, 0.5013085000100546, 0.6501255999901332, 0.5838927999720909, 0.9004907999769785, 0.4992047999985516, 0.5685454999911599, 0.5675162999541499, 0.6667882000328973, 0.5504770000115968, 0.6170545999775641, 0.5348231999669224, 0.7516892999992706, 0.4851691999938339, 0.4856162000214681, 0.5024048000341281, 0.5167295000283048]",666,food,0,1,BR,1,2023-07-17_14h19.11.061,crystals,2022.2.4,60.085609964439804,
