foodItem,path,image,skip_food.thisRepN,skip_food.thisTrialN,skip_food.thisN,skip_food.thisIndex,food_rating_loop.thisRepN,food_rating_loop.thisTrialN,food_rating_loop.thisN,food_rating_loop.thisIndex,start_food_rat_key.started,start_food_rat_text.started,start_food_rat_key.keys,start_food_rat_key.rt,foodImage.started,next_button.started,food_slider.response,food_slider.rt,next_button.numClicks,next_button.timesOn,next_button.timesOff,participant,group,extra,practice,rainbow,dorate,date,expName,psychopyVersion,frameRate,
grilled cheese.jpg,stimuli/food/,stimuli/food/grilled cheese.jpg,0,0,0,0,0,0,0,31,32.78149720001966,32.78149720001966,right,0.7115811999537982,33.598577600030694,35.297745800053235,7.33375,1.7226888000150211,1,[0.5670187000068836],[0.5670241000480019],666,food,0,1,BR,1,2023-07-17_14h07.53.013,crystals,2022.2.4,59.9218618900582,
lollipops.jpg,stimuli/food/,stimuli/food/lollipops.jpg,0,0,0,0,0,1,1,37,,,,,36.39789220003877,36.99796510004671,6.50125,0.5837789000361226,2,"[0.5670187000068836, 0.6003510999726132]","[0.5670241000480019, 0.6003563999547623]",666,food,0,1,BR,1,2023-07-17_14h07.53.013,crystals,2022.2.4,59.9218618900582,
cherry tomato.jpg,stimuli/food/,stimuli/food/cherry tomato.jpg,0,0,0,0,0,2,2,17,,,,,38.165785200020764,38.69808970001759,2.90125,0.5331044999766164,3,"[0.5670187000068836, 0.6003510999726132, 0.5008471999899484]","[0.5670241000480019, 0.6003563999547623, 0.5008520999690518]",666,food,0,1,BR,1,2023-07-17_14h07.53.013,crystals,2022.2.4,59.9218618900582,
froot loops w milk.jpg,stimuli/food/,stimuli/food/froot loops w milk.jpg,0,0,0,0,0,3,3,27,,,,,39.73130410001613,40.364535800006706,1.50625,0.6166997000109404,4,"[0.5670187000068836, 0.6003510999726132, 0.5008471999899484, 0.5015490999794565]","[0.5670241000480019, 0.6003563999547623, 0.5008520999690518, 0.5015553999692202]",666,food,0,1,BR,1,2023-07-17_14h07.53.013,crystals,2022.2.4,59.9218618900582,
Cheese nachos.jpg,stimuli/food/,stimuli/food/Cheese nachos.jpg,0,0,0,0,0,4,4,15,,,,,42.00044670002535,42.53167220001342,2.9987500000000002,1.1176514000399038,5,"[0.5670187000068836, 0.6003510999726132, 0.5008471999899484, 0.5015490999794565, 0.5027066000038758]","[0.5670241000480019, 0.6003563999547623, 0.5008520999690518, 0.5015553999692202, 0.5027142000035383]",666,food,0,1,BR,1,2023-07-17_14h07.53.013,crystals,2022.2.4,59.9218618900582,
ritz.jpg,stimuli/food/,stimuli/food/ritz.jpg,0,0,0,0,0,5,5,56,,,,,43.58146450005006,44.21487340005115,3.2575000000000003,0.633214199973736,6,"[0.5670187000068836, 0.6003510999726132, 0.5008471999899484, 0.5015490999794565, 0.5027066000038758, 0.434700200043153]","[0.5670241000480019, 0.6003563999547623, 0.5008520999690518, 0.5015553999692202, 0.5027142000035383, 0.4347076000412926]",666,food,0,1,BR,1,2023-07-17_14h07.53.013,crystals,2022.2.4,59.9218618900582,
orange slices.jpg,stimuli/food/,stimuli/food/orange slices.jpg,0,0,0,0,0,6,6,44,,,,,45.181552699999884,45.68226410000352,4.60375,0.4837345000123605,7,"[0.5670187000068836, 0.6003510999726132, 0.5008471999899484, 0.5015490999794565, 0.5027066000038758, 0.434700200043153, 0.7672392000094987]","[0.5670241000480019, 0.6003563999547623, 0.5008520999690518, 0.5015553999692202, 0.5027142000035383, 0.4347076000412926, 0.7672446999931708]",666,food,0,1,BR,1,2023-07-17_14h07.53.013,crystals,2022.2.4,59.9218618900582,
baguette oil.jpg,stimuli/food/,stimuli/food/baguette oil.jpg,0,0,0,0,0,7,7,8,,,,,46.997634800034575,47.581545800028834,5.811249999999999,0.5660275000263937,8,"[0.5670187000068836, 0.6003510999726132, 0.5008471999899484, 0.5015490999794565, 0.5027066000038758, 0.434700200043153, 0.7672392000094987, 0.40063849999569356]","[0.5670241000480019, 0.6003563999547623, 0.5008520999690518, 0.5015553999692202, 0.5027142000035383, 0.4347076000412926, 0.7672446999931708, 0.40064529998926446]",666,food,0,1,BR,1,2023-07-17_14h07.53.013,crystals,2022.2.4,59.9218618900582,
chicken nuggets2.jpg,stimuli/food/,stimuli/food/chicken nuggets2.jpg,0,0,0,0,0,8,8,18,,,,,48.531161300023086,48.965150200005155,6.557499999999999,0.4144070000038482,9,"[0.5670187000068836, 0.6003510999726132, 0.5008471999899484, 0.5015490999794565, 0.5027066000038758, 0.434700200043153, 0.7672392000094987, 0.40063849999569356, 0.40198680001776665]","[0.5670241000480019, 0.6003563999547623, 0.5008520999690518, 0.5015553999692202, 0.5027142000035383, 0.4347076000412926, 0.7672446999931708, 0.40064529998926446, 0.4019935000105761]",666,food,0,1,BR,1,2023-07-17_14h07.53.013,crystals,2022.2.4,59.9218618900582,
sour patch.jpg,stimuli/food/,stimuli/food/sour patch.jpg,0,0,0,0,0,9,9,62,,,,,49.91495980002219,50.38188230001833,7.585,0.4500758000067435,10,"[0.5670187000068836, 0.6003510999726132, 0.5008471999899484, 0.5015490999794565, 0.5027066000038758, 0.434700200043153, 0.7672392000094987, 0.40063849999569356, 0.40198680001776665, 0.43390860001090914]","[0.5670241000480019, 0.6003563999547623, 0.5008520999690518, 0.5015553999692202, 0.5027142000035383, 0.4347076000412926, 0.7672446999931708, 0.40064529998926446, 0.4019935000105761, 0.43391919997520745]",666,food,0,1,BR,1,2023-07-17_14h07.53.013,crystals,2022.2.4,59.9218618900582,
french fries.jpg,stimuli/food/,stimuli/food/french fries.jpg,0,0,0,0,0,10,10,25,,,,,51.36536160000833,51.83250960003352,8.86,0.46600309998029843,11,"[0.5670187000068836, 0.6003510999726132, 0.5008471999899484, 0.5015490999794565, 0.5027066000038758, 0.434700200043153, 0.7672392000094987, 0.40063849999569356, 0.40198680001776665, 0.43390860001090914, 0.467566600011196]","[0.5670241000480019, 0.6003563999547623, 0.5008520999690518, 0.5015553999692202, 0.5027142000035383, 0.4347076000412926, 0.7672446999931708, 0.40064529998926446, 0.4019935000105761, 0.43391919997520745, 0.4675721999956295]",666,food,0,1,BR,1,2023-07-17_14h07.53.013,crystals,2022.2.4,59.9218618900582,
Grapes.jpg,stimuli/food/,stimuli/food/Grapes.jpg,0,0,0,0,0,11,11,29,,,,,52.83163260004949,53.49818000005325,9.696250000000001,0.6490903000230901,12,"[0.5670187000068836, 0.6003510999726132, 0.5008471999899484, 0.5015490999794565, 0.5027066000038758, 0.434700200043153, 0.7672392000094987, 0.40063849999569356, 0.40198680001776665, 0.43390860001090914, 0.467566600011196, 0.5501045000273734]","[0.5670241000480019, 0.6003563999547623, 0.5008520999690518, 0.5015553999692202, 0.5027142000035383, 0.4347076000412926, 0.7672446999931708, 0.40064529998926446, 0.4019935000105761, 0.43391919997520745, 0.4675721999956295, 0.5501105000148527]",666,food,0,1,BR,1,2023-07-17_14h07.53.013,crystals,2022.2.4,59.9218618900582,
eggs.jpg,stimuli/food/,stimuli/food/eggs.jpg,0,0,0,0,0,12,12,24,,,,,54.61509990005288,55.21529780002311,1.36375,0.5998867999878712,13,"[0.5670187000068836, 0.6003510999726132, 0.5008471999899484, 0.5015490999794565, 0.5027066000038758, 0.434700200043153, 0.7672392000094987, 0.40063849999569356, 0.40198680001776665, 0.43390860001090914, 0.467566600011196, 0.5501045000273734, 0.517008499999065]","[0.5670241000480019, 0.6003563999547623, 0.5008520999690518, 0.5015553999692202, 0.5027142000035383, 0.4347076000412926, 0.7672446999931708, 0.40064529998926446, 0.4019935000105761, 0.43391919997520745, 0.4675721999956295, 0.5501105000148527, 0.5170143999857828]",666,food,0,1,BR,1,2023-07-17_14h07.53.013,crystals,2022.2.4,59.9218618900582,
fried eggs.jpg,stimuli/food/,stimuli/food/fried eggs.jpg,0,0,0,0,0,13,13,26,,,,,56.2983645000495,57.182266300020274,1.84375,0.8671844999771565,14,"[0.5670187000068836, 0.6003510999726132, 0.5008471999899484, 0.5015490999794565, 0.5027066000038758, 0.434700200043153, 0.7672392000094987, 0.40063849999569356, 0.40198680001776665, 0.43390860001090914, 0.467566600011196, 0.5501045000273734, 0.517008499999065, 0.6345393000519834]","[0.5670241000480019, 0.6003563999547623, 0.5008520999690518, 0.5015553999692202, 0.5027142000035383, 0.4347076000412926, 0.7672446999931708, 0.40064529998926446, 0.4019935000105761, 0.43391919997520745, 0.4675721999956295, 0.5501105000148527, 0.5170143999857828, 0.634547499998007]",666,food,0,1,BR,1,2023-07-17_14h07.53.013,crystals,2022.2.4,59.9218618900582,
salad w chicken.jpg,stimuli/food/,stimuli/food/salad w chicken.jpg,0,0,0,0,0,14,14,57,,,,,58.36519770004088,58.93170330004068,2.78125,0.5669599999673665,15,"[0.5670187000068836, 0.6003510999726132, 0.5008471999899484, 0.5015490999794565, 0.5027066000038758, 0.434700200043153, 0.7672392000094987, 0.40063849999569356, 0.40198680001776665, 0.43390860001090914, 0.467566600011196, 0.5501045000273734, 0.517008499999065, 0.6345393000519834, 0.6508275999804027]","[0.5670241000480019, 0.6003563999547623, 0.5008520999690518, 0.5015553999692202, 0.5027142000035383, 0.4347076000412926, 0.7672446999931708, 0.40064529998926446, 0.4019935000105761, 0.43391919997520745, 0.4675721999956295, 0.5501105000148527, 0.5170143999857828, 0.634547499998007, 0.6508331000222825]",666,food,0,1,BR,1,2023-07-17_14h07.53.013,crystals,2022.2.4,59.9218618900582,
baked potato.jpg,stimuli/food/,stimuli/food/baked potato.jpg,0,0,0,0,0,15,15,9,,,,,60.13180770003237,60.69930340000428,3.2837500000000004,0.5504876999766566,16,"[0.5670187000068836, 0.6003510999726132, 0.5008471999899484, 0.5015490999794565, 0.5027066000038758, 0.434700200043153, 0.7672392000094987, 0.40063849999569356, 0.40198680001776665, 0.43390860001090914, 0.467566600011196, 0.5501045000273734, 0.517008499999065, 0.6345393000519834, 0.6508275999804027, 0.48430989996995777]","[0.5670241000480019, 0.6003563999547623, 0.5008520999690518, 0.5015553999692202, 0.5027142000035383, 0.4347076000412926, 0.7672446999931708, 0.40064529998926446, 0.4019935000105761, 0.43391919997520745, 0.4675721999956295, 0.5501105000148527, 0.5170143999857828, 0.634547499998007, 0.6508331000222825, 0.48431590001564473]",666,food,0,1,BR,1,2023-07-17_14h07.53.013,crystals,2022.2.4,59.9218618900582,
yogurt pretzels.jpg,stimuli/food/,stimuli/food/yogurt pretzels.jpg,0,0,0,0,0,16,16,75,,,,,61.71468020003522,62.23196670005564,4.555,0.5004976000054739,17,"[0.5670187000068836, 0.6003510999726132, 0.5008471999899484, 0.5015490999794565, 0.5027066000038758, 0.434700200043153, 0.7672392000094987, 0.40063849999569356, 0.40198680001776665, 0.43390860001090914, 0.467566600011196, 0.5501045000273734, 0.517008499999065, 0.6345393000519834, 0.6508275999804027, 0.48430989996995777, 0.6672604000195861]","[0.5670241000480019, 0.6003563999547623, 0.5008520999690518, 0.5015553999692202, 0.5027142000035383, 0.4347076000412926, 0.7672446999931708, 0.40064529998926446, 0.4019935000105761, 0.43391919997520745, 0.4675721999956295, 0.5501105000148527, 0.5170143999857828, 0.634547499998007, 0.6508331000222825, 0.48431590001564473, 0.6672668000101112]",666,food,0,1,BR,1,2023-07-17_14h07.53.013,crystals,2022.2.4,59.9218618900582,
string cheese.jpg,stimuli/food/,stimuli/food/string cheese.jpg,0,0,0,0,0,17,17,66,,,,,63.43159910000395,64.14861820003716,5.41,0.6846444999682717,18,"[0.5670187000068836, 0.6003510999726132, 0.5008471999899484, 0.5015490999794565, 0.5027066000038758, 0.434700200043153, 0.7672392000094987, 0.40063849999569356, 0.40198680001776665, 0.43390860001090914, 0.467566600011196, 0.5501045000273734, 0.517008499999065, 0.6345393000519834, 0.6508275999804027, 0.48430989996995777, 0.6672604000195861, 0.6504704999970272]","[0.5670241000480019, 0.6003563999547623, 0.5008520999690518, 0.5015553999692202, 0.5027142000035383, 0.4347076000412926, 0.7672446999931708, 0.40064529998926446, 0.4019935000105761, 0.43391919997520745, 0.4675721999956295, 0.5501105000148527, 0.5170143999857828, 0.634547499998007, 0.6508331000222825, 0.48431590001564473, 0.6672668000101112, 0.6504758999799378]",666,food,0,1,BR,1,2023-07-17_14h07.53.013,crystals,2022.2.4,59.9218618900582,
peaches.jpg,stimuli/food/,stimuli/food/peaches.jpg,0,0,0,0,0,18,18,46,,,,,65.34876270004315,65.88269000005675,6.595000000000001,0.5162476999685168,19,"[0.5670187000068836, 0.6003510999726132, 0.5008471999899484, 0.5015490999794565, 0.5027066000038758, 0.434700200043153, 0.7672392000094987, 0.40063849999569356, 0.40198680001776665, 0.43390860001090914, 0.467566600011196, 0.5501045000273734, 0.517008499999065, 0.6345393000519834, 0.6508275999804027, 0.48430989996995777, 0.6672604000195861, 0.6504704999970272, 0.5335963999968953]","[0.5670241000480019, 0.6003563999547623, 0.5008520999690518, 0.5015553999692202, 0.5027142000035383, 0.4347076000412926, 0.7672446999931708, 0.40064529998926446, 0.4019935000105761, 0.43391919997520745, 0.4675721999956295, 0.5501105000148527, 0.5170143999857828, 0.634547499998007, 0.6508331000222825, 0.48431590001564473, 0.6672668000101112, 0.6504758999799378, 0.5336018999805674]",666,food,0,1,BR,1,2023-07-17_14h07.53.013,crystals,2022.2.4,59.9218618900582,
sushi w_condiments.jpg,stimuli/food/,stimuli/food/sushi w_condiments.jpg,0,0,0,0,0,19,19,67,,,,,66.96523620001972,67.49895930005005,7.58125,0.5339926999877207,20,"[0.5670187000068836, 0.6003510999726132, 0.5008471999899484, 0.5015490999794565, 0.5027066000038758, 0.434700200043153, 0.7672392000094987, 0.40063849999569356, 0.40198680001776665, 0.43390860001090914, 0.467566600011196, 0.5501045000273734, 0.517008499999065, 0.6345393000519834, 0.6508275999804027, 0.48430989996995777, 0.6672604000195861, 0.6504704999970272, 0.5335963999968953, 0.4676152999745682]","[0.5670241000480019, 0.6003563999547623, 0.5008520999690518, 0.5015553999692202, 0.5027142000035383, 0.4347076000412926, 0.7672446999931708, 0.40064529998926446, 0.4019935000105761, 0.43391919997520745, 0.4675721999956295, 0.5501105000148527, 0.5170143999857828, 0.634547499998007, 0.6508331000222825, 0.48431590001564473, 0.6672668000101112, 0.6504758999799378, 0.5336018999805674, 0.46762199996737763]",666,food,0,1,BR,1,2023-07-17_14h07.53.013,crystals,2022.2.4,59.9218618900582,
bagel and cc.jpg,stimuli/food/,stimuli/food/bagel and cc.jpg,0,0,0,0,0,20,20,6,,,,,68.51479560002917,69.04891840001801,8.5825,0.5182451999862678,21,"[0.5670187000068836, 0.6003510999726132, 0.5008471999899484, 0.5015490999794565, 0.5027066000038758, 0.434700200043153, 0.7672392000094987, 0.40063849999569356, 0.40198680001776665, 0.43390860001090914, 0.467566600011196, 0.5501045000273734, 0.517008499999065, 0.6345393000519834, 0.6508275999804027, 0.48430989996995777, 0.6672604000195861, 0.6504704999970272, 0.5335963999968953, 0.4676152999745682, 0.8005847000167705]","[0.5670241000480019, 0.6003563999547623, 0.5008520999690518, 0.5015553999692202, 0.5027142000035383, 0.4347076000412926, 0.7672446999931708, 0.40064529998926446, 0.4019935000105761, 0.43391919997520745, 0.4675721999956295, 0.5501105000148527, 0.5170143999857828, 0.634547499998007, 0.6508331000222825, 0.48431590001564473, 0.6672668000101112, 0.6504758999799378, 0.5336018999805674, 0.46762199996737763, 0.8005907000042498]",666,food,0,1,BR,1,2023-07-17_14h07.53.013,crystals,2022.2.4,59.9218618900582,
cupcakes am.jpg,stimuli/food/,stimuli/food/cupcakes am.jpg,0,0,0,0,0,21,21,22,,,,,70.39947910001501,70.99894850002602,9.865,0.6005165999522433,22,"[0.5670187000068836, 0.6003510999726132, 0.5008471999899484, 0.5015490999794565, 0.5027066000038758, 0.434700200043153, 0.7672392000094987, 0.40063849999569356, 0.40198680001776665, 0.43390860001090914, 0.467566600011196, 0.5501045000273734, 0.517008499999065, 0.6345393000519834, 0.6508275999804027, 0.48430989996995777, 0.6672604000195861, 0.6504704999970272, 0.5335963999968953, 0.4676152999745682, 0.8005847000167705, 0.5682247999939136]","[0.5670241000480019, 0.6003563999547623, 0.5008520999690518, 0.5015553999692202, 0.5027142000035383, 0.4347076000412926, 0.7672446999931708, 0.40064529998926446, 0.4019935000105761, 0.43391919997520745, 0.4675721999956295, 0.5501105000148527, 0.5170143999857828, 0.634547499998007, 0.6508331000222825, 0.48431590001564473, 0.6672668000101112, 0.6504758999799378, 0.5336018999805674, 0.46762199996737763, 0.8005907000042498, 0.5682317999890074]",666,food,0,1,BR,1,2023-07-17_14h07.53.013,crystals,2022.2.4,59.9218618900582,
mini muffins.jpg,stimuli/food/,stimuli/food/mini muffins.jpg,0,0,0,0,0,22,22,41,,,,,72.11489910003729,72.81621230003657,1.53625,0.6832434999523684,23,"[0.5670187000068836, 0.6003510999726132, 0.5008471999899484, 0.5015490999794565, 0.5027066000038758, 0.434700200043153, 0.7672392000094987, 0.40063849999569356, 0.40198680001776665, 0.43390860001090914, 0.467566600011196, 0.5501045000273734, 0.517008499999065, 0.6345393000519834, 0.6508275999804027, 0.48430989996995777, 0.6672604000195861, 0.6504704999970272, 0.5335963999968953, 0.4676152999745682, 0.8005847000167705, 0.5682247999939136, 0.5504213999956846]","[0.5670241000480019, 0.6003563999547623, 0.5008520999690518, 0.5015553999692202, 0.5027142000035383, 0.4347076000412926, 0.7672446999931708, 0.40064529998926446, 0.4019935000105761, 0.43391919997520745, 0.4675721999956295, 0.5501105000148527, 0.5170143999857828, 0.634547499998007, 0.6508331000222825, 0.48431590001564473, 0.6672668000101112, 0.6504758999799378, 0.5336018999805674, 0.46762199996737763, 0.8005907000042498, 0.5682317999890074, 0.550427500042133]",666,food,0,1,BR,1,2023-07-17_14h07.53.013,crystals,2022.2.4,59.9218618900582,
turkey sandwich.jpg,stimuli/food/,stimuli/food/turkey sandwich.jpg,0,0,0,0,0,23,23,71,,,,,73.89870460005477,74.43258880003123,2.32375,0.5161430999869481,24,"[0.5670187000068836, 0.6003510999726132, 0.5008471999899484, 0.5015490999794565, 0.5027066000038758, 0.434700200043153, 0.7672392000094987, 0.40063849999569356, 0.40198680001776665, 0.43390860001090914, 0.467566600011196, 0.5501045000273734, 0.517008499999065, 0.6345393000519834, 0.6508275999804027, 0.48430989996995777, 0.6672604000195861, 0.6504704999970272, 0.5335963999968953, 0.4676152999745682, 0.8005847000167705, 0.5682247999939136, 0.5504213999956846, 0.6174147999845445]","[0.5670241000480019, 0.6003563999547623, 0.5008520999690518, 0.5015553999692202, 0.5027142000035383, 0.4347076000412926, 0.7672446999931708, 0.40064529998926446, 0.4019935000105761, 0.43391919997520745, 0.4675721999956295, 0.5501105000148527, 0.5170143999857828, 0.634547499998007, 0.6508331000222825, 0.48431590001564473, 0.6672668000101112, 0.6504758999799378, 0.5336018999805674, 0.46762199996737763, 0.8005907000042498, 0.5682317999890074, 0.550427500042133, 0.6174205999705009]",666,food,0,1,BR,1,2023-07-17_14h07.53.013,crystals,2022.2.4,59.9218618900582,
baby cheese.jpg,stimuli/food/,stimuli/food/baby cheese.jpg,0,0,0,0,0,24,24,5,,,,,75.6172447000281,75.99932120001176,3.475,0.37670570000773296,25,"[0.5670187000068836, 0.6003510999726132, 0.5008471999899484, 0.5015490999794565, 0.5027066000038758, 0.434700200043153, 0.7672392000094987, 0.40063849999569356, 0.40198680001776665, 0.43390860001090914, 0.467566600011196, 0.5501045000273734, 0.517008499999065, 0.6345393000519834, 0.6508275999804027, 0.48430989996995777, 0.6672604000195861, 0.6504704999970272, 0.5335963999968953, 0.4676152999745682, 0.8005847000167705, 0.5682247999939136, 0.5504213999956846, 0.6174147999845445, 0.5174580000457354]","[0.5670241000480019, 0.6003563999547623, 0.5008520999690518, 0.5015553999692202, 0.5027142000035383, 0.4347076000412926, 0.7672446999931708, 0.40064529998926446, 0.4019935000105761, 0.43391919997520745, 0.4675721999956295, 0.5501105000148527, 0.5170143999857828, 0.634547499998007, 0.6508331000222825, 0.48431590001564473, 0.6672668000101112, 0.6504758999799378, 0.5336018999805674, 0.46762199996737763, 0.8005907000042498, 0.5682317999890074, 0.550427500042133, 0.6174205999705009, 0.5174630000256002]",666,food,0,1,BR,1,2023-07-17_14h07.53.013,crystals,2022.2.4,59.9218618900582,
saltines.jpg,stimuli/food/,stimuli/food/saltines.jpg,0,0,0,0,0,25,25,58,,,,,77.04884540004423,77.74847860005684,4.91125,0.6844471000367776,26,"[0.5670187000068836, 0.6003510999726132, 0.5008471999899484, 0.5015490999794565, 0.5027066000038758, 0.434700200043153, 0.7672392000094987, 0.40063849999569356, 0.40198680001776665, 0.43390860001090914, 0.467566600011196, 0.5501045000273734, 0.517008499999065, 0.6345393000519834, 0.6508275999804027, 0.48430989996995777, 0.6672604000195861, 0.6504704999970272, 0.5335963999968953, 0.4676152999745682, 0.8005847000167705, 0.5682247999939136, 0.5504213999956846, 0.6174147999845445, 0.5174580000457354, 0.6670690000173636]","[0.5670241000480019, 0.6003563999547623, 0.5008520999690518, 0.5015553999692202, 0.5027142000035383, 0.4347076000412926, 0.7672446999931708, 0.40064529998926446, 0.4019935000105761, 0.43391919997520745, 0.4675721999956295, 0.5501105000148527, 0.5170143999857828, 0.634547499998007, 0.6508331000222825, 0.48431590001564473, 0.6672668000101112, 0.6504758999799378, 0.5336018999805674, 0.46762199996737763, 0.8005907000042498, 0.5682317999890074, 0.550427500042133, 0.6174205999705009, 0.5174630000256002, 0.6670756000094116]",666,food,0,1,BR,1,2023-07-17_14h07.53.013,crystals,2022.2.4,59.9218618900582,
doughnuts.jpg,stimuli/food/,stimuli/food/doughnuts.jpg,0,0,0,0,0,26,26,23,,,,,78.96588000003248,79.43300090002595,5.57125,0.4650789999868721,27,"[0.5670187000068836, 0.6003510999726132, 0.5008471999899484, 0.5015490999794565, 0.5027066000038758, 0.434700200043153, 0.7672392000094987, 0.40063849999569356, 0.40198680001776665, 0.43390860001090914, 0.467566600011196, 0.5501045000273734, 0.517008499999065, 0.6345393000519834, 0.6508275999804027, 0.48430989996995777, 0.6672604000195861, 0.6504704999970272, 0.5335963999968953, 0.4676152999745682, 0.8005847000167705, 0.5682247999939136, 0.5504213999956846, 0.6174147999845445, 0.5174580000457354, 0.6670690000173636, 0.400450799963437]","[0.5670241000480019, 0.6003563999547623, 0.5008520999690518, 0.5015553999692202, 0.5027142000035383, 0.4347076000412926, 0.7672446999931708, 0.40064529998926446, 0.4019935000105761, 0.43391919997520745, 0.4675721999956295, 0.5501105000148527, 0.5170143999857828, 0.634547499998007, 0.6508331000222825, 0.48431590001564473, 0.6672668000101112, 0.6504758999799378, 0.5336018999805674, 0.46762199996737763, 0.8005907000042498, 0.5682317999890074, 0.550427500042133, 0.6174205999705009, 0.5174630000256002, 0.6670756000094116, 0.4004760999814607]",666,food,0,1,BR,1,2023-07-17_14h07.53.013,crystals,2022.2.4,59.9218618900582,
bagel plain.jpg,stimuli/food/,stimuli/food/bagel plain.jpg,0,0,0,0,0,27,27,7,,,,,80.38220910000382,80.78219930001069,6.58,0.3997748999972828,28,"[0.5670187000068836, 0.6003510999726132, 0.5008471999899484, 0.5015490999794565, 0.5027066000038758, 0.434700200043153, 0.7672392000094987, 0.40063849999569356, 0.40198680001776665, 0.43390860001090914, 0.467566600011196, 0.5501045000273734, 0.517008499999065, 0.6345393000519834, 0.6508275999804027, 0.48430989996995777, 0.6672604000195861, 0.6504704999970272, 0.5335963999968953, 0.4676152999745682, 0.8005847000167705, 0.5682247999939136, 0.5504213999956846, 0.6174147999845445, 0.5174580000457354, 0.6670690000173636, 0.400450799963437, 0.5501558000105433]","[0.5670241000480019, 0.6003563999547623, 0.5008520999690518, 0.5015553999692202, 0.5027142000035383, 0.4347076000412926, 0.7672446999931708, 0.40064529998926446, 0.4019935000105761, 0.43391919997520745, 0.4675721999956295, 0.5501105000148527, 0.5170143999857828, 0.634547499998007, 0.6508331000222825, 0.48431590001564473, 0.6672668000101112, 0.6504758999799378, 0.5336018999805674, 0.46762199996737763, 0.8005907000042498, 0.5682317999890074, 0.550427500042133, 0.6174205999705009, 0.5174630000256002, 0.6670756000094116, 0.4004760999814607, 0.5501616999972612]",666,food,0,1,BR,1,2023-07-17_14h07.53.013,crystals,2022.2.4,59.9218618900582,
Tribe humus pita.jpg,stimuli/food/,stimuli/food/Tribe humus pita.jpg,0,0,0,0,0,28,28,70,,,,,81.88207089999923,82.29943990003085,7.5962499999999995,0.4163972000242211,29,"[0.5670187000068836, 0.6003510999726132, 0.5008471999899484, 0.5015490999794565, 0.5027066000038758, 0.434700200043153, 0.7672392000094987, 0.40063849999569356, 0.40198680001776665, 0.43390860001090914, 0.467566600011196, 0.5501045000273734, 0.517008499999065, 0.6345393000519834, 0.6508275999804027, 0.48430989996995777, 0.6672604000195861, 0.6504704999970272, 0.5335963999968953, 0.4676152999745682, 0.8005847000167705, 0.5682247999939136, 0.5504213999956846, 0.6174147999845445, 0.5174580000457354, 0.6670690000173636, 0.400450799963437, 0.5501558000105433, 0.40072149998741224]","[0.5670241000480019, 0.6003563999547623, 0.5008520999690518, 0.5015553999692202, 0.5027142000035383, 0.4347076000412926, 0.7672446999931708, 0.40064529998926446, 0.4019935000105761, 0.43391919997520745, 0.4675721999956295, 0.5501105000148527, 0.5170143999857828, 0.634547499998007, 0.6508331000222825, 0.48431590001564473, 0.6672668000101112, 0.6504758999799378, 0.5336018999805674, 0.46762199996737763, 0.8005907000042498, 0.5682317999890074, 0.550427500042133, 0.6174205999705009, 0.5174630000256002, 0.6670756000094116, 0.4004760999814607, 0.5501616999972612, 0.40072749997489154]",666,food,0,1,BR,1,2023-07-17_14h07.53.013,crystals,2022.2.4,59.9218618900582,
brownie.jpg,stimuli/food/,stimuli/food/brownie.jpg,0,0,0,0,0,29,29,12,,,,,83.26561710005626,83.76584420003928,8.425,0.5003410000354052,30,"[0.5670187000068836, 0.6003510999726132, 0.5008471999899484, 0.5015490999794565, 0.5027066000038758, 0.434700200043153, 0.7672392000094987, 0.40063849999569356, 0.40198680001776665, 0.43390860001090914, 0.467566600011196, 0.5501045000273734, 0.517008499999065, 0.6345393000519834, 0.6508275999804027, 0.48430989996995777, 0.6672604000195861, 0.6504704999970272, 0.5335963999968953, 0.4676152999745682, 0.8005847000167705, 0.5682247999939136, 0.5504213999956846, 0.6174147999845445, 0.5174580000457354, 0.6670690000173636, 0.400450799963437, 0.5501558000105433, 0.40072149998741224, 0.7347268000012264]","[0.5670241000480019, 0.6003563999547623, 0.5008520999690518, 0.5015553999692202, 0.5027142000035383, 0.4347076000412926, 0.7672446999931708, 0.40064529998926446, 0.4019935000105761, 0.43391919997520745, 0.4675721999956295, 0.5501105000148527, 0.5170143999857828, 0.634547499998007, 0.6508331000222825, 0.48431590001564473, 0.6672668000101112, 0.6504758999799378, 0.5336018999805674, 0.46762199996737763, 0.8005907000042498, 0.5682317999890074, 0.550427500042133, 0.6174205999705009, 0.5174630000256002, 0.6670756000094116, 0.4004760999814607, 0.5501616999972612, 0.40072749997489154, 0.7347327999887057]",666,food,0,1,BR,1,2023-07-17_14h07.53.013,crystals,2022.2.4,59.9218618900582,
green beans.jpg,stimuli/food/,stimuli/food/green beans.jpg,0,0,0,0,0,30,30,30,,,,,85.04951420001453,85.5829642000026,9.685,0.5328851000522263,31,"[0.5670187000068836, 0.6003510999726132, 0.5008471999899484, 0.5015490999794565, 0.5027066000038758, 0.434700200043153, 0.7672392000094987, 0.40063849999569356, 0.40198680001776665, 0.43390860001090914, 0.467566600011196, 0.5501045000273734, 0.517008499999065, 0.6345393000519834, 0.6508275999804027, 0.48430989996995777, 0.6672604000195861, 0.6504704999970272, 0.5335963999968953, 0.4676152999745682, 0.8005847000167705, 0.5682247999939136, 0.5504213999956846, 0.6174147999845445, 0.5174580000457354, 0.6670690000173636, 0.400450799963437, 0.5501558000105433, 0.40072149998741224, 0.7347268000012264, 0.8851673000026494]","[0.5670241000480019, 0.6003563999547623, 0.5008520999690518, 0.5015553999692202, 0.5027142000035383, 0.4347076000412926, 0.7672446999931708, 0.40064529998926446, 0.4019935000105761, 0.43391919997520745, 0.4675721999956295, 0.5501105000148527, 0.5170143999857828, 0.634547499998007, 0.6508331000222825, 0.48431590001564473, 0.6672668000101112, 0.6504758999799378, 0.5336018999805674, 0.46762199996737763, 0.8005907000042498, 0.5682317999890074, 0.550427500042133, 0.6174205999705009, 0.5174630000256002, 0.6670756000094116, 0.4004760999814607, 0.5501616999972612, 0.40072749997489154, 0.7347327999887057, 0.8852075000177138]",666,food,0,1,BR,1,2023-07-17_14h07.53.013,crystals,2022.2.4,59.9218618900582,
american cheese.jpg,stimuli/food/,stimuli/food/american cheese.jpg,0,0,0,0,0,31,31,2,,,,,86.99854650005,87.66619410004932,8.42875,0.6509763000067323,32,"[0.5670187000068836, 0.6003510999726132, 0.5008471999899484, 0.5015490999794565, 0.5027066000038758, 0.434700200043153, 0.7672392000094987, 0.40063849999569356, 0.40198680001776665, 0.43390860001090914, 0.467566600011196, 0.5501045000273734, 0.517008499999065, 0.6345393000519834, 0.6508275999804027, 0.48430989996995777, 0.6672604000195861, 0.6504704999970272, 0.5335963999968953, 0.4676152999745682, 0.8005847000167705, 0.5682247999939136, 0.5504213999956846, 0.6174147999845445, 0.5174580000457354, 0.6670690000173636, 0.400450799963437, 0.5501558000105433, 0.40072149998741224, 0.7347268000012264, 0.8851673000026494, 0.567442299972754]","[0.5670241000480019, 0.6003563999547623, 0.5008520999690518, 0.5015553999692202, 0.5027142000035383, 0.4347076000412926, 0.7672446999931708, 0.40064529998926446, 0.4019935000105761, 0.43391919997520745, 0.4675721999956295, 0.5501105000148527, 0.5170143999857828, 0.634547499998007, 0.6508331000222825, 0.48431590001564473, 0.6672668000101112, 0.6504758999799378, 0.5336018999805674, 0.46762199996737763, 0.8005907000042498, 0.5682317999890074, 0.550427500042133, 0.6174205999705009, 0.5174630000256002, 0.6670756000094116, 0.4004760999814607, 0.5501616999972612, 0.40072749997489154, 0.7347327999887057, 0.8852075000177138, 0.5674502999754623]",666,food,0,1,BR,1,2023-07-17_14h07.53.013,crystals,2022.2.4,59.9218618900582,
banana.jpg,stimuli/food/,stimuli/food/banana.jpg,0,0,0,0,0,32,32,10,,,,,88.76548060000641,89.33305110002402,7.6225000000000005,0.549998999980744,33,"[0.5670187000068836, 0.6003510999726132, 0.5008471999899484, 0.5015490999794565, 0.5027066000038758, 0.434700200043153, 0.7672392000094987, 0.40063849999569356, 0.40198680001776665, 0.43390860001090914, 0.467566600011196, 0.5501045000273734, 0.517008499999065, 0.6345393000519834, 0.6508275999804027, 0.48430989996995777, 0.6672604000195861, 0.6504704999970272, 0.5335963999968953, 0.4676152999745682, 0.8005847000167705, 0.5682247999939136, 0.5504213999956846, 0.6174147999845445, 0.5174580000457354, 0.6670690000173636, 0.400450799963437, 0.5501558000105433, 0.40072149998741224, 0.7347268000012264, 0.8851673000026494, 0.567442299972754, 0.6684697999735363]","[0.5670241000480019, 0.6003563999547623, 0.5008520999690518, 0.5015553999692202, 0.5027142000035383, 0.4347076000412926, 0.7672446999931708, 0.40064529998926446, 0.4019935000105761, 0.43391919997520745, 0.4675721999956295, 0.5501105000148527, 0.5170143999857828, 0.634547499998007, 0.6508331000222825, 0.48431590001564473, 0.6672668000101112, 0.6504758999799378, 0.5336018999805674, 0.46762199996737763, 0.8005907000042498, 0.5682317999890074, 0.550427500042133, 0.6174205999705009, 0.5174630000256002, 0.6670756000094116, 0.4004760999814607, 0.5501616999972612, 0.40072749997489154, 0.7347327999887057, 0.8852075000177138, 0.5674502999754623, 0.6684767999686301]",666,food,0,1,BR,1,2023-07-17_14h07.53.013,crystals,2022.2.4,59.9218618900582,
mozarella sticks.jpg,stimuli/food/,stimuli/food/mozarella sticks.jpg,0,0,0,0,0,33,33,42,,,,,90.54851550003514,91.11675890005426,6.3325000000000005,0.5511418000096455,34,"[0.5670187000068836, 0.6003510999726132, 0.5008471999899484, 0.5015490999794565, 0.5027066000038758, 0.434700200043153, 0.7672392000094987, 0.40063849999569356, 0.40198680001776665, 0.43390860001090914, 0.467566600011196, 0.5501045000273734, 0.517008499999065, 0.6345393000519834, 0.6508275999804027, 0.48430989996995777, 0.6672604000195861, 0.6504704999970272, 0.5335963999968953, 0.4676152999745682, 0.8005847000167705, 0.5682247999939136, 0.5504213999956846, 0.6174147999845445, 0.5174580000457354, 0.6670690000173636, 0.400450799963437, 0.5501558000105433, 0.40072149998741224, 0.7347268000012264, 0.8851673000026494, 0.567442299972754, 0.6684697999735363, 0.433554399991408]","[0.5670241000480019, 0.6003563999547623, 0.5008520999690518, 0.5015553999692202, 0.5027142000035383, 0.4347076000412926, 0.7672446999931708, 0.40064529998926446, 0.4019935000105761, 0.43391919997520745, 0.4675721999956295, 0.5501105000148527, 0.5170143999857828, 0.634547499998007, 0.6508331000222825, 0.48431590001564473, 0.6672668000101112, 0.6504758999799378, 0.5336018999805674, 0.46762199996737763, 0.8005907000042498, 0.5682317999890074, 0.550427500042133, 0.6174205999705009, 0.5174630000256002, 0.6670756000094116, 0.4004760999814607, 0.5501616999972612, 0.40072749997489154, 0.7347327999887057, 0.8852075000177138, 0.5674502999754623, 0.6684767999686301, 0.4335624999948777]",666,food,0,1,BR,1,2023-07-17_14h07.53.013,crystals,2022.2.4,59.9218618900582,
cherries.jpg,stimuli/food/,stimuli/food/cherries.jpg,0,0,0,0,0,34,34,16,,,,,92.08259370003361,92.6164372000494,5.4775,0.516294699977152,35,"[0.5670187000068836, 0.6003510999726132, 0.5008471999899484, 0.5015490999794565, 0.5027066000038758, 0.434700200043153, 0.7672392000094987, 0.40063849999569356, 0.40198680001776665, 0.43390860001090914, 0.467566600011196, 0.5501045000273734, 0.517008499999065, 0.6345393000519834, 0.6508275999804027, 0.48430989996995777, 0.6672604000195861, 0.6504704999970272, 0.5335963999968953, 0.4676152999745682, 0.8005847000167705, 0.5682247999939136, 0.5504213999956846, 0.6174147999845445, 0.5174580000457354, 0.6670690000173636, 0.400450799963437, 0.5501558000105433, 0.40072149998741224, 0.7347268000012264, 0.8851673000026494, 0.567442299972754, 0.6684697999735363, 0.433554399991408, 0.41666970000369474]","[0.5670241000480019, 0.6003563999547623, 0.5008520999690518, 0.5015553999692202, 0.5027142000035383, 0.4347076000412926, 0.7672446999931708, 0.40064529998926446, 0.4019935000105761, 0.43391919997520745, 0.4675721999956295, 0.5501105000148527, 0.5170143999857828, 0.634547499998007, 0.6508331000222825, 0.48431590001564473, 0.6672668000101112, 0.6504758999799378, 0.5336018999805674, 0.46762199996737763, 0.8005907000042498, 0.5682317999890074, 0.550427500042133, 0.6174205999705009, 0.5174630000256002, 0.6670756000094116, 0.4004760999814607, 0.5501616999972612, 0.40072749997489154, 0.7347327999887057, 0.8852075000177138, 0.5674502999754623, 0.6684767999686301, 0.4335624999948777, 0.4166770000010729]",666,food,0,1,BR,1,2023-07-17_14h07.53.013,crystals,2022.2.4,59.9218618900582,
rigatoni and sauce.jpg,stimuli/food/,stimuli/food/rigatoni and sauce.jpg,0,0,0,0,0,35,35,54,,,,,93.56571240001358,94.31598770001438,4.577500000000001,0.7336119999527,36,"[0.5670187000068836, 0.6003510999726132, 0.5008471999899484, 0.5015490999794565, 0.5027066000038758, 0.434700200043153, 0.7672392000094987, 0.40063849999569356, 0.40198680001776665, 0.43390860001090914, 0.467566600011196, 0.5501045000273734, 0.517008499999065, 0.6345393000519834, 0.6508275999804027, 0.48430989996995777, 0.6672604000195861, 0.6504704999970272, 0.5335963999968953, 0.4676152999745682, 0.8005847000167705, 0.5682247999939136, 0.5504213999956846, 0.6174147999845445, 0.5174580000457354, 0.6670690000173636, 0.400450799963437, 0.5501558000105433, 0.40072149998741224, 0.7347268000012264, 0.8851673000026494, 0.567442299972754, 0.6684697999735363, 0.433554399991408, 0.41666970000369474, 0.45056849997490644]","[0.5670241000480019, 0.6003563999547623, 0.5008520999690518, 0.5015553999692202, 0.5027142000035383, 0.4347076000412926, 0.7672446999931708, 0.40064529998926446, 0.4019935000105761, 0.43391919997520745, 0.4675721999956295, 0.5501105000148527, 0.5170143999857828, 0.634547499998007, 0.6508331000222825, 0.48431590001564473, 0.6672668000101112, 0.6504758999799378, 0.5336018999805674, 0.46762199996737763, 0.8005907000042498, 0.5682317999890074, 0.550427500042133, 0.6174205999705009, 0.5174630000256002, 0.6670756000094116, 0.4004760999814607, 0.5501616999972612, 0.40072749997489154, 0.7347327999887057, 0.8852075000177138, 0.5674502999754623, 0.6684767999686301, 0.4335624999948777, 0.4166770000010729, 0.45057440001983196]",666,food,0,1,BR,1,2023-07-17_14h07.53.013,crystals,2022.2.4,59.9218618900582,
hotdog w must.jpg,stimuli/food/,stimuli/food/hotdog w must.jpg,0,0,0,0,0,36,36,34,,,,,95.31592050002655,95.94939280004473,3.6175,0.6344168999930844,37,"[0.5670187000068836, 0.6003510999726132, 0.5008471999899484, 0.5015490999794565, 0.5027066000038758, 0.434700200043153, 0.7672392000094987, 0.40063849999569356, 0.40198680001776665, 0.43390860001090914, 0.467566600011196, 0.5501045000273734, 0.517008499999065, 0.6345393000519834, 0.6508275999804027, 0.48430989996995777, 0.6672604000195861, 0.6504704999970272, 0.5335963999968953, 0.4676152999745682, 0.8005847000167705, 0.5682247999939136, 0.5504213999956846, 0.6174147999845445, 0.5174580000457354, 0.6670690000173636, 0.400450799963437, 0.5501558000105433, 0.40072149998741224, 0.7347268000012264, 0.8851673000026494, 0.567442299972754, 0.6684697999735363, 0.433554399991408, 0.41666970000369474, 0.45056849997490644, 0.501060199982021]","[0.5670241000480019, 0.6003563999547623, 0.5008520999690518, 0.5015553999692202, 0.5027142000035383, 0.4347076000412926, 0.7672446999931708, 0.40064529998926446, 0.4019935000105761, 0.43391919997520745, 0.4675721999956295, 0.5501105000148527, 0.5170143999857828, 0.634547499998007, 0.6508331000222825, 0.48431590001564473, 0.6672668000101112, 0.6504758999799378, 0.5336018999805674, 0.46762199996737763, 0.8005907000042498, 0.5682317999890074, 0.550427500042133, 0.6174205999705009, 0.5174630000256002, 0.6670756000094116, 0.4004760999814607, 0.5501616999972612, 0.40072749997489154, 0.7347327999887057, 0.8852075000177138, 0.5674502999754623, 0.6684767999686301, 0.4335624999948777, 0.4166770000010729, 0.45057440001983196, 0.5010673999786377]",666,food,0,1,BR,1,2023-07-17_14h07.53.013,crystals,2022.2.4,59.9218618900582,
ice cream sundae 002.jpg,stimuli/food/,stimuli/food/ice cream sundae 002.jpg,0,0,0,0,0,37,37,35,,,,,97.57364420004888,98.1160812000162,2.77,1.116843700001482,38,"[0.5670187000068836, 0.6003510999726132, 0.5008471999899484, 0.5015490999794565, 0.5027066000038758, 0.434700200043153, 0.7672392000094987, 0.40063849999569356, 0.40198680001776665, 0.43390860001090914, 0.467566600011196, 0.5501045000273734, 0.517008499999065, 0.6345393000519834, 0.6508275999804027, 0.48430989996995777, 0.6672604000195861, 0.6504704999970272, 0.5335963999968953, 0.4676152999745682, 0.8005847000167705, 0.5682247999939136, 0.5504213999956846, 0.6174147999845445, 0.5174580000457354, 0.6670690000173636, 0.400450799963437, 0.5501558000105433, 0.40072149998741224, 0.7347268000012264, 0.8851673000026494, 0.567442299972754, 0.6684697999735363, 0.433554399991408, 0.41666970000369474, 0.45056849997490644, 0.501060199982021, 0.51664729998447]","[0.5670241000480019, 0.6003563999547623, 0.5008520999690518, 0.5015553999692202, 0.5027142000035383, 0.4347076000412926, 0.7672446999931708, 0.40064529998926446, 0.4019935000105761, 0.43391919997520745, 0.4675721999956295, 0.5501105000148527, 0.5170143999857828, 0.634547499998007, 0.6508331000222825, 0.48431590001564473, 0.6672668000101112, 0.6504758999799378, 0.5336018999805674, 0.46762199996737763, 0.8005907000042498, 0.5682317999890074, 0.550427500042133, 0.6174205999705009, 0.5174630000256002, 0.6670756000094116, 0.4004760999814607, 0.5501616999972612, 0.40072749997489154, 0.7347327999887057, 0.8852075000177138, 0.5674502999754623, 0.6684767999686301, 0.4335624999948777, 0.4166770000010729, 0.45057440001983196, 0.5010673999786377, 0.5166528000263497]",666,food,0,1,BR,1,2023-07-17_14h07.53.013,crystals,2022.2.4,59.9218618900582,
apple slices.jpg,stimuli/food/,stimuli/food/apple slices.jpg,0,0,0,0,0,38,38,3,,,,,99.18361020000884,100.1833045000094,1.3075,0.9822361000115052,39,"[0.5670187000068836, 0.6003510999726132, 0.5008471999899484, 0.5015490999794565, 0.5027066000038758, 0.434700200043153, 0.7672392000094987, 0.40063849999569356, 0.40198680001776665, 0.43390860001090914, 0.467566600011196, 0.5501045000273734, 0.517008499999065, 0.6345393000519834, 0.6508275999804027, 0.48430989996995777, 0.6672604000195861, 0.6504704999970272, 0.5335963999968953, 0.4676152999745682, 0.8005847000167705, 0.5682247999939136, 0.5504213999956846, 0.6174147999845445, 0.5174580000457354, 0.6670690000173636, 0.400450799963437, 0.5501558000105433, 0.40072149998741224, 0.7347268000012264, 0.8851673000026494, 0.567442299972754, 0.6684697999735363, 0.433554399991408, 0.41666970000369474, 0.45056849997490644, 0.501060199982021, 0.51664729998447, 0.5996619000216015]","[0.5670241000480019, 0.6003563999547623, 0.5008520999690518, 0.5015553999692202, 0.5027142000035383, 0.4347076000412926, 0.7672446999931708, 0.40064529998926446, 0.4019935000105761, 0.43391919997520745, 0.4675721999956295, 0.5501105000148527, 0.5170143999857828, 0.634547499998007, 0.6508331000222825, 0.48431590001564473, 0.6672668000101112, 0.6504758999799378, 0.5336018999805674, 0.46762199996737763, 0.8005907000042498, 0.5682317999890074, 0.550427500042133, 0.6174205999705009, 0.5174630000256002, 0.6670756000094116, 0.4004760999814607, 0.5501616999972612, 0.40072749997489154, 0.7347327999887057, 0.8852075000177138, 0.5674502999754623, 0.6684767999686301, 0.4335624999948777, 0.4166770000010729, 0.45057440001983196, 0.5010673999786377, 0.5166528000263497, 0.5996678000083193]",666,food,0,1,BR,1,2023-07-17_14h07.53.013,crystals,2022.2.4,59.9218618900582,
reeses.jpg,stimuli/food/,stimuli/food/reeses.jpg,0,0,0,0,0,39,39,52,,,,,101.33394590002717,102.09937660000287,2.5900000000000003,0.7665674000163563,40,"[0.5670187000068836, 0.6003510999726132, 0.5008471999899484, 0.5015490999794565, 0.5027066000038758, 0.434700200043153, 0.7672392000094987, 0.40063849999569356, 0.40198680001776665, 0.43390860001090914, 0.467566600011196, 0.5501045000273734, 0.517008499999065, 0.6345393000519834, 0.6508275999804027, 0.48430989996995777, 0.6672604000195861, 0.6504704999970272, 0.5335963999968953, 0.4676152999745682, 0.8005847000167705, 0.5682247999939136, 0.5504213999956846, 0.6174147999845445, 0.5174580000457354, 0.6670690000173636, 0.400450799963437, 0.5501558000105433, 0.40072149998741224, 0.7347268000012264, 0.8851673000026494, 0.567442299972754, 0.6684697999735363, 0.433554399991408, 0.41666970000369474, 0.45056849997490644, 0.501060199982021, 0.51664729998447, 0.5996619000216015, 0.46683370001846924]","[0.5670241000480019, 0.6003563999547623, 0.5008520999690518, 0.5015553999692202, 0.5027142000035383, 0.4347076000412926, 0.7672446999931708, 0.40064529998926446, 0.4019935000105761, 0.43391919997520745, 0.4675721999956295, 0.5501105000148527, 0.5170143999857828, 0.634547499998007, 0.6508331000222825, 0.48431590001564473, 0.6672668000101112, 0.6504758999799378, 0.5336018999805674, 0.46762199996737763, 0.8005907000042498, 0.5682317999890074, 0.550427500042133, 0.6174205999705009, 0.5174630000256002, 0.6670756000094116, 0.4004760999814607, 0.5501616999972612, 0.40072749997489154, 0.7347327999887057, 0.8852075000177138, 0.5674502999754623, 0.6684767999686301, 0.4335624999948777, 0.4166770000010729, 0.45057440001983196, 0.5010673999786377, 0.5166528000263497, 0.5996678000083193, 0.4668392000021413]",666,food,0,1,BR,1,2023-07-17_14h07.53.013,crystals,2022.2.4,59.9218618900582,
kiwi.jpg,stimuli/food/,stimuli/food/kiwi.jpg,0,0,0,0,0,40,40,36,,,,,103.11614060000284,103.61681470001349,3.44125,0.48591899999883026,41,"[0.5670187000068836, 0.6003510999726132, 0.5008471999899484, 0.5015490999794565, 0.5027066000038758, 0.434700200043153, 0.7672392000094987, 0.40063849999569356, 0.40198680001776665, 0.43390860001090914, 0.467566600011196, 0.5501045000273734, 0.517008499999065, 0.6345393000519834, 0.6508275999804027, 0.48430989996995777, 0.6672604000195861, 0.6504704999970272, 0.5335963999968953, 0.4676152999745682, 0.8005847000167705, 0.5682247999939136, 0.5504213999956846, 0.6174147999845445, 0.5174580000457354, 0.6670690000173636, 0.400450799963437, 0.5501558000105433, 0.40072149998741224, 0.7347268000012264, 0.8851673000026494, 0.567442299972754, 0.6684697999735363, 0.433554399991408, 0.41666970000369474, 0.45056849997490644, 0.501060199982021, 0.51664729998447, 0.5996619000216015, 0.46683370001846924, 0.5512925999937579]","[0.5670241000480019, 0.6003563999547623, 0.5008520999690518, 0.5015553999692202, 0.5027142000035383, 0.4347076000412926, 0.7672446999931708, 0.40064529998926446, 0.4019935000105761, 0.43391919997520745, 0.4675721999956295, 0.5501105000148527, 0.5170143999857828, 0.634547499998007, 0.6508331000222825, 0.48431590001564473, 0.6672668000101112, 0.6504758999799378, 0.5336018999805674, 0.46762199996737763, 0.8005907000042498, 0.5682317999890074, 0.550427500042133, 0.6174205999705009, 0.5174630000256002, 0.6670756000094116, 0.4004760999814607, 0.5501616999972612, 0.40072749997489154, 0.7347327999887057, 0.8852075000177138, 0.5674502999754623, 0.6684767999686301, 0.4335624999948777, 0.4166770000010729, 0.45057440001983196, 0.5010673999786377, 0.5166528000263497, 0.5996678000083193, 0.4668392000021413, 0.5513017000048421]",666,food,0,1,BR,1,2023-07-17_14h07.53.013,crystals,2022.2.4,59.9218618900582,
rice cakes.jpg,stimuli/food/,stimuli/food/rice cakes.jpg,0,0,0,0,0,41,41,53,,,,,104.71619340003235,105.35011440003291,4.135,0.6325181999709457,42,"[0.5670187000068836, 0.6003510999726132, 0.5008471999899484, 0.5015490999794565, 0.5027066000038758, 0.434700200043153, 0.7672392000094987, 0.40063849999569356, 0.40198680001776665, 0.43390860001090914, 0.467566600011196, 0.5501045000273734, 0.517008499999065, 0.6345393000519834, 0.6508275999804027, 0.48430989996995777, 0.6672604000195861, 0.6504704999970272, 0.5335963999968953, 0.4676152999745682, 0.8005847000167705, 0.5682247999939136, 0.5504213999956846, 0.6174147999845445, 0.5174580000457354, 0.6670690000173636, 0.400450799963437, 0.5501558000105433, 0.40072149998741224, 0.7347268000012264, 0.8851673000026494, 0.567442299972754, 0.6684697999735363, 0.433554399991408, 0.41666970000369474, 0.45056849997490644, 0.501060199982021, 0.51664729998447, 0.5996619000216015, 0.46683370001846924, 0.5512925999937579, 0.41835939994780347]","[0.5670241000480019, 0.6003563999547623, 0.5008520999690518, 0.5015553999692202, 0.5027142000035383, 0.4347076000412926, 0.7672446999931708, 0.40064529998926446, 0.4019935000105761, 0.43391919997520745, 0.4675721999956295, 0.5501105000148527, 0.5170143999857828, 0.634547499998007, 0.6508331000222825, 0.48431590001564473, 0.6672668000101112, 0.6504758999799378, 0.5336018999805674, 0.46762199996737763, 0.8005907000042498, 0.5682317999890074, 0.550427500042133, 0.6174205999705009, 0.5174630000256002, 0.6670756000094116, 0.4004760999814607, 0.5501616999972612, 0.40072749997489154, 0.7347327999887057, 0.8852075000177138, 0.5674502999754623, 0.6684767999686301, 0.4335624999948777, 0.4166770000010729, 0.45057440001983196, 0.5010673999786377, 0.5166528000263497, 0.5996678000083193, 0.4668392000021413, 0.5513017000048421, 0.4183650999912061]",666,food,0,1,BR,1,2023-07-17_14h07.53.013,crystals,2022.2.4,59.9218618900582,
corn cob.jpg,stimuli/food/,stimuli/food/corn cob.jpg,0,0,0,0,0,42,42,20,,,,,106.31553920003353,106.74991750001209,5.37625,0.4166776000056416,43,"[0.5670187000068836, 0.6003510999726132, 0.5008471999899484, 0.5015490999794565, 0.5027066000038758, 0.434700200043153, 0.7672392000094987, 0.40063849999569356, 0.40198680001776665, 0.43390860001090914, 0.467566600011196, 0.5501045000273734, 0.517008499999065, 0.6345393000519834, 0.6508275999804027, 0.48430989996995777, 0.6672604000195861, 0.6504704999970272, 0.5335963999968953, 0.4676152999745682, 0.8005847000167705, 0.5682247999939136, 0.5504213999956846, 0.6174147999845445, 0.5174580000457354, 0.6670690000173636, 0.400450799963437, 0.5501558000105433, 0.40072149998741224, 0.7347268000012264, 0.8851673000026494, 0.567442299972754, 0.6684697999735363, 0.433554399991408, 0.41666970000369474, 0.45056849997490644, 0.501060199982021, 0.51664729998447, 0.5996619000216015, 0.46683370001846924, 0.5512925999937579, 0.41835939994780347, 0.5504645999753848]","[0.5670241000480019, 0.6003563999547623, 0.5008520999690518, 0.5015553999692202, 0.5027142000035383, 0.4347076000412926, 0.7672446999931708, 0.40064529998926446, 0.4019935000105761, 0.43391919997520745, 0.4675721999956295, 0.5501105000148527, 0.5170143999857828, 0.634547499998007, 0.6508331000222825, 0.48431590001564473, 0.6672668000101112, 0.6504758999799378, 0.5336018999805674, 0.46762199996737763, 0.8005907000042498, 0.5682317999890074, 0.550427500042133, 0.6174205999705009, 0.5174630000256002, 0.6670756000094116, 0.4004760999814607, 0.5501616999972612, 0.40072749997489154, 0.7347327999887057, 0.8852075000177138, 0.5674502999754623, 0.6684767999686301, 0.4335624999948777, 0.4166770000010729, 0.45057440001983196, 0.5010673999786377, 0.5166528000263497, 0.5996678000083193, 0.4668392000021413, 0.5513017000048421, 0.4183650999912061, 0.5504719999735244]",666,food,0,1,BR,1,2023-07-17_14h07.53.013,crystals,2022.2.4,59.9218618900582,
granola w milk.jpg,stimuli/food/,stimuli/food/granola w milk.jpg,0,0,0,0,0,43,43,28,,,,,107.84943480003858,108.61689550004667,6.2875000000000005,0.7674966999911703,44,"[0.5670187000068836, 0.6003510999726132, 0.5008471999899484, 0.5015490999794565, 0.5027066000038758, 0.434700200043153, 0.7672392000094987, 0.40063849999569356, 0.40198680001776665, 0.43390860001090914, 0.467566600011196, 0.5501045000273734, 0.517008499999065, 0.6345393000519834, 0.6508275999804027, 0.48430989996995777, 0.6672604000195861, 0.6504704999970272, 0.5335963999968953, 0.4676152999745682, 0.8005847000167705, 0.5682247999939136, 0.5504213999956846, 0.6174147999845445, 0.5174580000457354, 0.6670690000173636, 0.400450799963437, 0.5501558000105433, 0.40072149998741224, 0.7347268000012264, 0.8851673000026494, 0.567442299972754, 0.6684697999735363, 0.433554399991408, 0.41666970000369474, 0.45056849997490644, 0.501060199982021, 0.51664729998447, 0.5996619000216015, 0.46683370001846924, 0.5512925999937579, 0.41835939994780347, 0.5504645999753848, 0.43464099999982864]","[0.5670241000480019, 0.6003563999547623, 0.5008520999690518, 0.5015553999692202, 0.5027142000035383, 0.4347076000412926, 0.7672446999931708, 0.40064529998926446, 0.4019935000105761, 0.43391919997520745, 0.4675721999956295, 0.5501105000148527, 0.5170143999857828, 0.634547499998007, 0.6508331000222825, 0.48431590001564473, 0.6672668000101112, 0.6504758999799378, 0.5336018999805674, 0.46762199996737763, 0.8005907000042498, 0.5682317999890074, 0.550427500042133, 0.6174205999705009, 0.5174630000256002, 0.6670756000094116, 0.4004760999814607, 0.5501616999972612, 0.40072749997489154, 0.7347327999887057, 0.8852075000177138, 0.5674502999754623, 0.6684767999686301, 0.4335624999948777, 0.4166770000010729, 0.45057440001983196, 0.5010673999786377, 0.5166528000263497, 0.5996678000083193, 0.4668392000021413, 0.5513017000048421, 0.4183650999912061, 0.5504719999735244, 0.4346470999880694]",666,food,0,1,BR,1,2023-07-17_14h07.53.013,crystals,2022.2.4,59.9218618900582,
yellow popcorn.jpg,stimuli/food/,stimuli/food/yellow popcorn.jpg,0,0,0,0,0,44,44,73,,,,,109.6003395000007,110.16605390002951,7.26625,0.5494769000215456,45,"[0.5670187000068836, 0.6003510999726132, 0.5008471999899484, 0.5015490999794565, 0.5027066000038758, 0.434700200043153, 0.7672392000094987, 0.40063849999569356, 0.40198680001776665, 0.43390860001090914, 0.467566600011196, 0.5501045000273734, 0.517008499999065, 0.6345393000519834, 0.6508275999804027, 0.48430989996995777, 0.6672604000195861, 0.6504704999970272, 0.5335963999968953, 0.4676152999745682, 0.8005847000167705, 0.5682247999939136, 0.5504213999956846, 0.6174147999845445, 0.5174580000457354, 0.6670690000173636, 0.400450799963437, 0.5501558000105433, 0.40072149998741224, 0.7347268000012264, 0.8851673000026494, 0.567442299972754, 0.6684697999735363, 0.433554399991408, 0.41666970000369474, 0.45056849997490644, 0.501060199982021, 0.51664729998447, 0.5996619000216015, 0.46683370001846924, 0.5512925999937579, 0.41835939994780347, 0.5504645999753848, 0.43464099999982864, 1.3188842999516055]","[0.5670241000480019, 0.6003563999547623, 0.5008520999690518, 0.5015553999692202, 0.5027142000035383, 0.4347076000412926, 0.7672446999931708, 0.40064529998926446, 0.4019935000105761, 0.43391919997520745, 0.4675721999956295, 0.5501105000148527, 0.5170143999857828, 0.634547499998007, 0.6508331000222825, 0.48431590001564473, 0.6672668000101112, 0.6504758999799378, 0.5336018999805674, 0.46762199996737763, 0.8005907000042498, 0.5682317999890074, 0.550427500042133, 0.6174205999705009, 0.5174630000256002, 0.6670756000094116, 0.4004760999814607, 0.5501616999972612, 0.40072749997489154, 0.7347327999887057, 0.8852075000177138, 0.5674502999754623, 0.6684767999686301, 0.4335624999948777, 0.4166770000010729, 0.45057440001983196, 0.5010673999786377, 0.5166528000263497, 0.5996678000083193, 0.4668392000021413, 0.5513017000048421, 0.4183650999912061, 0.5504719999735244, 0.4346470999880694, 1.318892999959644]",666,food,0,1,BR,1,2023-07-17_14h07.53.013,crystals,2022.2.4,59.9218618900582,
cookies.jpg,stimuli/food/,stimuli/food/cookies.jpg,0,0,0,0,0,45,45,19,,,,,112.03281170001719,112.53333990002284,8.42875,0.5006752999615856,46,"[0.5670187000068836, 0.6003510999726132, 0.5008471999899484, 0.5015490999794565, 0.5027066000038758, 0.434700200043153, 0.7672392000094987, 0.40063849999569356, 0.40198680001776665, 0.43390860001090914, 0.467566600011196, 0.5501045000273734, 0.517008499999065, 0.6345393000519834, 0.6508275999804027, 0.48430989996995777, 0.6672604000195861, 0.6504704999970272, 0.5335963999968953, 0.4676152999745682, 0.8005847000167705, 0.5682247999939136, 0.5504213999956846, 0.6174147999845445, 0.5174580000457354, 0.6670690000173636, 0.400450799963437, 0.5501558000105433, 0.40072149998741224, 0.7347268000012264, 0.8851673000026494, 0.567442299972754, 0.6684697999735363, 0.433554399991408, 0.41666970000369474, 0.45056849997490644, 0.501060199982021, 0.51664729998447, 0.5996619000216015, 0.46683370001846924, 0.5512925999937579, 0.41835939994780347, 0.5504645999753848, 0.43464099999982864, 1.3188842999516055, 0.5002924000145867]","[0.5670241000480019, 0.6003563999547623, 0.5008520999690518, 0.5015553999692202, 0.5027142000035383, 0.4347076000412926, 0.7672446999931708, 0.40064529998926446, 0.4019935000105761, 0.43391919997520745, 0.4675721999956295, 0.5501105000148527, 0.5170143999857828, 0.634547499998007, 0.6508331000222825, 0.48431590001564473, 0.6672668000101112, 0.6504758999799378, 0.5336018999805674, 0.46762199996737763, 0.8005907000042498, 0.5682317999890074, 0.550427500042133, 0.6174205999705009, 0.5174630000256002, 0.6670756000094116, 0.4004760999814607, 0.5501616999972612, 0.40072749997489154, 0.7347327999887057, 0.8852075000177138, 0.5674502999754623, 0.6684767999686301, 0.4335624999948777, 0.4166770000010729, 0.45057440001983196, 0.5010673999786377, 0.5166528000263497, 0.5996678000083193, 0.4668392000021413, 0.5513017000048421, 0.4183650999912061, 0.5504719999735244, 0.4346470999880694, 1.318892999959644, 0.500298600003589]",666,food,0,1,BR,1,2023-07-17_14h07.53.013,crystals,2022.2.4,59.9218618900582,
1%milk.jpg,stimuli/food/,stimuli/food/1%milk.jpg,0,0,0,0,0,46,46,0,,,,,113.5660205000313,113.9994978000177,9.43,0.41694309999002144,47,"[0.5670187000068836, 0.6003510999726132, 0.5008471999899484, 0.5015490999794565, 0.5027066000038758, 0.434700200043153, 0.7672392000094987, 0.40063849999569356, 0.40198680001776665, 0.43390860001090914, 0.467566600011196, 0.5501045000273734, 0.517008499999065, 0.6345393000519834, 0.6508275999804027, 0.48430989996995777, 0.6672604000195861, 0.6504704999970272, 0.5335963999968953, 0.4676152999745682, 0.8005847000167705, 0.5682247999939136, 0.5504213999956846, 0.6174147999845445, 0.5174580000457354, 0.6670690000173636, 0.400450799963437, 0.5501558000105433, 0.40072149998741224, 0.7347268000012264, 0.8851673000026494, 0.567442299972754, 0.6684697999735363, 0.433554399991408, 0.41666970000369474, 0.45056849997490644, 0.501060199982021, 0.51664729998447, 0.5996619000216015, 0.46683370001846924, 0.5512925999937579, 0.41835939994780347, 0.5504645999753848, 0.43464099999982864, 1.3188842999516055, 0.5002924000145867, 0.7504932999727316]","[0.5670241000480019, 0.6003563999547623, 0.5008520999690518, 0.5015553999692202, 0.5027142000035383, 0.4347076000412926, 0.7672446999931708, 0.40064529998926446, 0.4019935000105761, 0.43391919997520745, 0.4675721999956295, 0.5501105000148527, 0.5170143999857828, 0.634547499998007, 0.6508331000222825, 0.48431590001564473, 0.6672668000101112, 0.6504758999799378, 0.5336018999805674, 0.46762199996737763, 0.8005907000042498, 0.5682317999890074, 0.550427500042133, 0.6174205999705009, 0.5174630000256002, 0.6670756000094116, 0.4004760999814607, 0.5501616999972612, 0.40072749997489154, 0.7347327999887057, 0.8852075000177138, 0.5674502999754623, 0.6684767999686301, 0.4335624999948777, 0.4166770000010729, 0.45057440001983196, 0.5010673999786377, 0.5166528000263497, 0.5996678000083193, 0.4668392000021413, 0.5513017000048421, 0.4183650999912061, 0.5504719999735244, 0.4346470999880694, 1.318892999959644, 0.500298600003589, 0.7505009999731556]",666,food,0,1,BR,1,2023-07-17_14h07.53.013,crystals,2022.2.4,59.9218618900582,
pizza.jpg,stimuli/food/,stimuli/food/pizza.jpg,0,0,0,0,0,47,47,48,,,,,115.30307330004871,115.98316130001331,8.19625,0.6695909999543801,48,"[0.5670187000068836, 0.6003510999726132, 0.5008471999899484, 0.5015490999794565, 0.5027066000038758, 0.434700200043153, 0.7672392000094987, 0.40063849999569356, 0.40198680001776665, 0.43390860001090914, 0.467566600011196, 0.5501045000273734, 0.517008499999065, 0.6345393000519834, 0.6508275999804027, 0.48430989996995777, 0.6672604000195861, 0.6504704999970272, 0.5335963999968953, 0.4676152999745682, 0.8005847000167705, 0.5682247999939136, 0.5504213999956846, 0.6174147999845445, 0.5174580000457354, 0.6670690000173636, 0.400450799963437, 0.5501558000105433, 0.40072149998741224, 0.7347268000012264, 0.8851673000026494, 0.567442299972754, 0.6684697999735363, 0.433554399991408, 0.41666970000369474, 0.45056849997490644, 0.501060199982021, 0.51664729998447, 0.5996619000216015, 0.46683370001846924, 0.5512925999937579, 0.41835939994780347, 0.5504645999753848, 0.43464099999982864, 1.3188842999516055, 0.5002924000145867, 0.7504932999727316, 0.567810799984727]","[0.5670241000480019, 0.6003563999547623, 0.5008520999690518, 0.5015553999692202, 0.5027142000035383, 0.4347076000412926, 0.7672446999931708, 0.40064529998926446, 0.4019935000105761, 0.43391919997520745, 0.4675721999956295, 0.5501105000148527, 0.5170143999857828, 0.634547499998007, 0.6508331000222825, 0.48431590001564473, 0.6672668000101112, 0.6504758999799378, 0.5336018999805674, 0.46762199996737763, 0.8005907000042498, 0.5682317999890074, 0.550427500042133, 0.6174205999705009, 0.5174630000256002, 0.6670756000094116, 0.4004760999814607, 0.5501616999972612, 0.40072749997489154, 0.7347327999887057, 0.8852075000177138, 0.5674502999754623, 0.6684767999686301, 0.4335624999948777, 0.4166770000010729, 0.45057440001983196, 0.5010673999786377, 0.5166528000263497, 0.5996678000083193, 0.4668392000021413, 0.5513017000048421, 0.4183650999912061, 0.5504719999735244, 0.4346470999880694, 1.318892999959644, 0.500298600003589, 0.7505009999731556, 0.5678199999965727]",666,food,0,1,BR,1,2023-07-17_14h07.53.013,crystals,2022.2.4,59.9218618900582,
Whole milk.jpg,stimuli/food/,stimuli/food/Whole milk.jpg,0,0,0,0,0,48,48,72,,,,,117.08288720005658,117.6835645000101,7.3975,0.5828393999836408,49,"[0.5670187000068836, 0.6003510999726132, 0.5008471999899484, 0.5015490999794565, 0.5027066000038758, 0.434700200043153, 0.7672392000094987, 0.40063849999569356, 0.40198680001776665, 0.43390860001090914, 0.467566600011196, 0.5501045000273734, 0.517008499999065, 0.6345393000519834, 0.6508275999804027, 0.48430989996995777, 0.6672604000195861, 0.6504704999970272, 0.5335963999968953, 0.4676152999745682, 0.8005847000167705, 0.5682247999939136, 0.5504213999956846, 0.6174147999845445, 0.5174580000457354, 0.6670690000173636, 0.400450799963437, 0.5501558000105433, 0.40072149998741224, 0.7347268000012264, 0.8851673000026494, 0.567442299972754, 0.6684697999735363, 0.433554399991408, 0.41666970000369474, 0.45056849997490644, 0.501060199982021, 0.51664729998447, 0.5996619000216015, 0.46683370001846924, 0.5512925999937579, 0.41835939994780347, 0.5504645999753848, 0.43464099999982864, 1.3188842999516055, 0.5002924000145867, 0.7504932999727316, 0.567810799984727, 0.7673791000270285]","[0.5670241000480019, 0.6003563999547623, 0.5008520999690518, 0.5015553999692202, 0.5027142000035383, 0.4347076000412926, 0.7672446999931708, 0.40064529998926446, 0.4019935000105761, 0.43391919997520745, 0.4675721999956295, 0.5501105000148527, 0.5170143999857828, 0.634547499998007, 0.6508331000222825, 0.48431590001564473, 0.6672668000101112, 0.6504758999799378, 0.5336018999805674, 0.46762199996737763, 0.8005907000042498, 0.5682317999890074, 0.550427500042133, 0.6174205999705009, 0.5174630000256002, 0.6670756000094116, 0.4004760999814607, 0.5501616999972612, 0.40072749997489154, 0.7347327999887057, 0.8852075000177138, 0.5674502999754623, 0.6684767999686301, 0.4335624999948777, 0.4166770000010729, 0.45057440001983196, 0.5010673999786377, 0.5166528000263497, 0.5996678000083193, 0.4668392000021413, 0.5513017000048421, 0.4183650999912061, 0.5504719999735244, 0.4346470999880694, 1.318892999959644, 0.500298600003589, 0.7505009999731556, 0.5678199999965727, 0.7673852000152692]",666,food,0,1,BR,1,2023-07-17_14h07.53.013,crystals,2022.2.4,59.9218618900582,
raisin bran w milk.jpg,stimuli/food/,stimuli/food/raisin bran w milk.jpg,0,0,0,0,0,49,49,50,,,,,119.00141020002775,119.56690400000662,6.42625,0.5665576999890618,50,"[0.5670187000068836, 0.6003510999726132, 0.5008471999899484, 0.5015490999794565, 0.5027066000038758, 0.434700200043153, 0.7672392000094987, 0.40063849999569356, 0.40198680001776665, 0.43390860001090914, 0.467566600011196, 0.5501045000273734, 0.517008499999065, 0.6345393000519834, 0.6508275999804027, 0.48430989996995777, 0.6672604000195861, 0.6504704999970272, 0.5335963999968953, 0.4676152999745682, 0.8005847000167705, 0.5682247999939136, 0.5504213999956846, 0.6174147999845445, 0.5174580000457354, 0.6670690000173636, 0.400450799963437, 0.5501558000105433, 0.40072149998741224, 0.7347268000012264, 0.8851673000026494, 0.567442299972754, 0.6684697999735363, 0.433554399991408, 0.41666970000369474, 0.45056849997490644, 0.501060199982021, 0.51664729998447, 0.5996619000216015, 0.46683370001846924, 0.5512925999937579, 0.41835939994780347, 0.5504645999753848, 0.43464099999982864, 1.3188842999516055, 0.5002924000145867, 0.7504932999727316, 0.567810799984727, 0.7673791000270285, 0.5006705999840051]","[0.5670241000480019, 0.6003563999547623, 0.5008520999690518, 0.5015553999692202, 0.5027142000035383, 0.4347076000412926, 0.7672446999931708, 0.40064529998926446, 0.4019935000105761, 0.43391919997520745, 0.4675721999956295, 0.5501105000148527, 0.5170143999857828, 0.634547499998007, 0.6508331000222825, 0.48431590001564473, 0.6672668000101112, 0.6504758999799378, 0.5336018999805674, 0.46762199996737763, 0.8005907000042498, 0.5682317999890074, 0.550427500042133, 0.6174205999705009, 0.5174630000256002, 0.6670756000094116, 0.4004760999814607, 0.5501616999972612, 0.40072749997489154, 0.7347327999887057, 0.8852075000177138, 0.5674502999754623, 0.6684767999686301, 0.4335624999948777, 0.4166770000010729, 0.45057440001983196, 0.5010673999786377, 0.5166528000263497, 0.5996678000083193, 0.4668392000021413, 0.5513017000048421, 0.4183650999912061, 0.5504719999735244, 0.4346470999880694, 1.318892999959644, 0.500298600003589, 0.7505009999731556, 0.5678199999965727, 0.7673852000152692, 0.5006764999707229]",666,food,0,1,BR,1,2023-07-17_14h07.53.013,crystals,2022.2.4,59.9218618900582,
soy chips.jpg,stimuli/food/,stimuli/food/soy chips.jpg,0,0,0,0,0,50,50,63,,,,,120.61625460005598,121.41669810004532,5.36875,0.7998535999795422,51,"[0.5670187000068836, 0.6003510999726132, 0.5008471999899484, 0.5015490999794565, 0.5027066000038758, 0.434700200043153, 0.7672392000094987, 0.40063849999569356, 0.40198680001776665, 0.43390860001090914, 0.467566600011196, 0.5501045000273734, 0.517008499999065, 0.6345393000519834, 0.6508275999804027, 0.48430989996995777, 0.6672604000195861, 0.6504704999970272, 0.5335963999968953, 0.4676152999745682, 0.8005847000167705, 0.5682247999939136, 0.5504213999956846, 0.6174147999845445, 0.5174580000457354, 0.6670690000173636, 0.400450799963437, 0.5501558000105433, 0.40072149998741224, 0.7347268000012264, 0.8851673000026494, 0.567442299972754, 0.6684697999735363, 0.433554399991408, 0.41666970000369474, 0.45056849997490644, 0.501060199982021, 0.51664729998447, 0.5996619000216015, 0.46683370001846924, 0.5512925999937579, 0.41835939994780347, 0.5504645999753848, 0.43464099999982864, 1.3188842999516055, 0.5002924000145867, 0.7504932999727316, 0.567810799984727, 0.7673791000270285, 0.5006705999840051, 0.46809989999746904]","[0.5670241000480019, 0.6003563999547623, 0.5008520999690518, 0.5015553999692202, 0.5027142000035383, 0.4347076000412926, 0.7672446999931708, 0.40064529998926446, 0.4019935000105761, 0.43391919997520745, 0.4675721999956295, 0.5501105000148527, 0.5170143999857828, 0.634547499998007, 0.6508331000222825, 0.48431590001564473, 0.6672668000101112, 0.6504758999799378, 0.5336018999805674, 0.46762199996737763, 0.8005907000042498, 0.5682317999890074, 0.550427500042133, 0.6174205999705009, 0.5174630000256002, 0.6670756000094116, 0.4004760999814607, 0.5501616999972612, 0.40072749997489154, 0.7347327999887057, 0.8852075000177138, 0.5674502999754623, 0.6684767999686301, 0.4335624999948777, 0.4166770000010729, 0.45057440001983196, 0.5010673999786377, 0.5166528000263497, 0.5996678000083193, 0.4668392000021413, 0.5513017000048421, 0.4183650999912061, 0.5504719999735244, 0.4346470999880694, 1.318892999959644, 0.500298600003589, 0.7505009999731556, 0.5678199999965727, 0.7673852000152692, 0.5006764999707229, 0.46810609998647124]",666,food,0,1,BR,1,2023-07-17_14h07.53.013,crystals,2022.2.4,59.9218618900582,
grilled chicken strips.jpg,stimuli/food/,stimuli/food/grilled chicken strips.jpg,0,0,0,0,0,51,51,32,,,,,122.43288750003558,123.03266970004188,4.6375,0.600127799960319,52,"[0.5670187000068836, 0.6003510999726132, 0.5008471999899484, 0.5015490999794565, 0.5027066000038758, 0.434700200043153, 0.7672392000094987, 0.40063849999569356, 0.40198680001776665, 0.43390860001090914, 0.467566600011196, 0.5501045000273734, 0.517008499999065, 0.6345393000519834, 0.6508275999804027, 0.48430989996995777, 0.6672604000195861, 0.6504704999970272, 0.5335963999968953, 0.4676152999745682, 0.8005847000167705, 0.5682247999939136, 0.5504213999956846, 0.6174147999845445, 0.5174580000457354, 0.6670690000173636, 0.400450799963437, 0.5501558000105433, 0.40072149998741224, 0.7347268000012264, 0.8851673000026494, 0.567442299972754, 0.6684697999735363, 0.433554399991408, 0.41666970000369474, 0.45056849997490644, 0.501060199982021, 0.51664729998447, 0.5996619000216015, 0.46683370001846924, 0.5512925999937579, 0.41835939994780347, 0.5504645999753848, 0.43464099999982864, 1.3188842999516055, 0.5002924000145867, 0.7504932999727316, 0.567810799984727, 0.7673791000270285, 0.5006705999840051, 0.46809989999746904, 0.4853531999979168]","[0.5670241000480019, 0.6003563999547623, 0.5008520999690518, 0.5015553999692202, 0.5027142000035383, 0.4347076000412926, 0.7672446999931708, 0.40064529998926446, 0.4019935000105761, 0.43391919997520745, 0.4675721999956295, 0.5501105000148527, 0.5170143999857828, 0.634547499998007, 0.6508331000222825, 0.48431590001564473, 0.6672668000101112, 0.6504758999799378, 0.5336018999805674, 0.46762199996737763, 0.8005907000042498, 0.5682317999890074, 0.550427500042133, 0.6174205999705009, 0.5174630000256002, 0.6670756000094116, 0.4004760999814607, 0.5501616999972612, 0.40072749997489154, 0.7347327999887057, 0.8852075000177138, 0.5674502999754623, 0.6684767999686301, 0.4335624999948777, 0.4166770000010729, 0.45057440001983196, 0.5010673999786377, 0.5166528000263497, 0.5996678000083193, 0.4668392000021413, 0.5513017000048421, 0.4183650999912061, 0.5504719999735244, 0.4346470999880694, 1.318892999959644, 0.500298600003589, 0.7505009999731556, 0.5678199999965727, 0.7673852000152692, 0.5006764999707229, 0.46810609998647124, 0.485359399986919]",666,food,0,1,BR,1,2023-07-17_14h07.53.013,crystals,2022.2.4,59.9218618900582,
steak.jpg,stimuli/food/,stimuli/food/steak.jpg,0,0,0,0,0,52,52,64,,,,,124.08550390001619,124.61675230000401,3.505,0.532664600003045,53,"[0.5670187000068836, 0.6003510999726132, 0.5008471999899484, 0.5015490999794565, 0.5027066000038758, 0.434700200043153, 0.7672392000094987, 0.40063849999569356, 0.40198680001776665, 0.43390860001090914, 0.467566600011196, 0.5501045000273734, 0.517008499999065, 0.6345393000519834, 0.6508275999804027, 0.48430989996995777, 0.6672604000195861, 0.6504704999970272, 0.5335963999968953, 0.4676152999745682, 0.8005847000167705, 0.5682247999939136, 0.5504213999956846, 0.6174147999845445, 0.5174580000457354, 0.6670690000173636, 0.400450799963437, 0.5501558000105433, 0.40072149998741224, 0.7347268000012264, 0.8851673000026494, 0.567442299972754, 0.6684697999735363, 0.433554399991408, 0.41666970000369474, 0.45056849997490644, 0.501060199982021, 0.51664729998447, 0.5996619000216015, 0.46683370001846924, 0.5512925999937579, 0.41835939994780347, 0.5504645999753848, 0.43464099999982864, 1.3188842999516055, 0.5002924000145867, 0.7504932999727316, 0.567810799984727, 0.7673791000270285, 0.5006705999840051, 0.46809989999746904, 0.4853531999979168, 0.517866900016088]","[0.5670241000480019, 0.6003563999547623, 0.5008520999690518, 0.5015553999692202, 0.5027142000035383, 0.4347076000412926, 0.7672446999931708, 0.40064529998926446, 0.4019935000105761, 0.43391919997520745, 0.4675721999956295, 0.5501105000148527, 0.5170143999857828, 0.634547499998007, 0.6508331000222825, 0.48431590001564473, 0.6672668000101112, 0.6504758999799378, 0.5336018999805674, 0.46762199996737763, 0.8005907000042498, 0.5682317999890074, 0.550427500042133, 0.6174205999705009, 0.5174630000256002, 0.6670756000094116, 0.4004760999814607, 0.5501616999972612, 0.40072749997489154, 0.7347327999887057, 0.8852075000177138, 0.5674502999754623, 0.6684767999686301, 0.4335624999948777, 0.4166770000010729, 0.45057440001983196, 0.5010673999786377, 0.5166528000263497, 0.5996678000083193, 0.4668392000021413, 0.5513017000048421, 0.4183650999912061, 0.5504719999735244, 0.4346470999880694, 1.318892999959644, 0.500298600003589, 0.7505009999731556, 0.5678199999965727, 0.7673852000152692, 0.5006764999707229, 0.46810609998647124, 0.485359399986919, 0.5178725000005215]",666,food,0,1,BR,1,2023-07-17_14h07.53.013,crystals,2022.2.4,59.9218618900582,
burger.jpg,stimuli/food/,stimuli/food/burger.jpg,0,0,0,0,0,53,53,13,,,,,125.68407540000044,126.20098940003663,2.3725000000000005,0.5177366000134498,54,"[0.5670187000068836, 0.6003510999726132, 0.5008471999899484, 0.5015490999794565, 0.5027066000038758, 0.434700200043153, 0.7672392000094987, 0.40063849999569356, 0.40198680001776665, 0.43390860001090914, 0.467566600011196, 0.5501045000273734, 0.517008499999065, 0.6345393000519834, 0.6508275999804027, 0.48430989996995777, 0.6672604000195861, 0.6504704999970272, 0.5335963999968953, 0.4676152999745682, 0.8005847000167705, 0.5682247999939136, 0.5504213999956846, 0.6174147999845445, 0.5174580000457354, 0.6670690000173636, 0.400450799963437, 0.5501558000105433, 0.40072149998741224, 0.7347268000012264, 0.8851673000026494, 0.567442299972754, 0.6684697999735363, 0.433554399991408, 0.41666970000369474, 0.45056849997490644, 0.501060199982021, 0.51664729998447, 0.5996619000216015, 0.46683370001846924, 0.5512925999937579, 0.41835939994780347, 0.5504645999753848, 0.43464099999982864, 1.3188842999516055, 0.5002924000145867, 0.7504932999727316, 0.567810799984727, 0.7673791000270285, 0.5006705999840051, 0.46809989999746904, 0.4853531999979168, 0.517866900016088, 0.6176714000175707]","[0.5670241000480019, 0.6003563999547623, 0.5008520999690518, 0.5015553999692202, 0.5027142000035383, 0.4347076000412926, 0.7672446999931708, 0.40064529998926446, 0.4019935000105761, 0.43391919997520745, 0.4675721999956295, 0.5501105000148527, 0.5170143999857828, 0.634547499998007, 0.6508331000222825, 0.48431590001564473, 0.6672668000101112, 0.6504758999799378, 0.5336018999805674, 0.46762199996737763, 0.8005907000042498, 0.5682317999890074, 0.550427500042133, 0.6174205999705009, 0.5174630000256002, 0.6670756000094116, 0.4004760999814607, 0.5501616999972612, 0.40072749997489154, 0.7347327999887057, 0.8852075000177138, 0.5674502999754623, 0.6684767999686301, 0.4335624999948777, 0.4166770000010729, 0.45057440001983196, 0.5010673999786377, 0.5166528000263497, 0.5996678000083193, 0.4668392000021413, 0.5513017000048421, 0.4183650999912061, 0.5504719999735244, 0.4346470999880694, 1.318892999959644, 0.500298600003589, 0.7505009999731556, 0.5678199999965727, 0.7673852000152692, 0.5006764999707229, 0.46810609998647124, 0.485359399986919, 0.5178725000005215, 0.61767740000505]",666,food,0,1,BR,1,2023-07-17_14h07.53.013,crystals,2022.2.4,59.9218618900582,
pickles.jpg,stimuli/food/,stimuli/food/pickles.jpg,0,0,0,0,0,54,54,47,,,,,127.87091360002523,128.56662500003586,1.4837500000000001,1.1840492999763228,55,"[0.5670187000068836, 0.6003510999726132, 0.5008471999899484, 0.5015490999794565, 0.5027066000038758, 0.434700200043153, 0.7672392000094987, 0.40063849999569356, 0.40198680001776665, 0.43390860001090914, 0.467566600011196, 0.5501045000273734, 0.517008499999065, 0.6345393000519834, 0.6508275999804027, 0.48430989996995777, 0.6672604000195861, 0.6504704999970272, 0.5335963999968953, 0.4676152999745682, 0.8005847000167705, 0.5682247999939136, 0.5504213999956846, 0.6174147999845445, 0.5174580000457354, 0.6670690000173636, 0.400450799963437, 0.5501558000105433, 0.40072149998741224, 0.7347268000012264, 0.8851673000026494, 0.567442299972754, 0.6684697999735363, 0.433554399991408, 0.41666970000369474, 0.45056849997490644, 0.501060199982021, 0.51664729998447, 0.5996619000216015, 0.46683370001846924, 0.5512925999937579, 0.41835939994780347, 0.5504645999753848, 0.43464099999982864, 1.3188842999516055, 0.5002924000145867, 0.7504932999727316, 0.567810799984727, 0.7673791000270285, 0.5006705999840051, 0.46809989999746904, 0.4853531999979168, 0.517866900016088, 0.6176714000175707, 0.46714690001681447]","[0.5670241000480019, 0.6003563999547623, 0.5008520999690518, 0.5015553999692202, 0.5027142000035383, 0.4347076000412926, 0.7672446999931708, 0.40064529998926446, 0.4019935000105761, 0.43391919997520745, 0.4675721999956295, 0.5501105000148527, 0.5170143999857828, 0.634547499998007, 0.6508331000222825, 0.48431590001564473, 0.6672668000101112, 0.6504758999799378, 0.5336018999805674, 0.46762199996737763, 0.8005907000042498, 0.5682317999890074, 0.550427500042133, 0.6174205999705009, 0.5174630000256002, 0.6670756000094116, 0.4004760999814607, 0.5501616999972612, 0.40072749997489154, 0.7347327999887057, 0.8852075000177138, 0.5674502999754623, 0.6684767999686301, 0.4335624999948777, 0.4166770000010729, 0.45057440001983196, 0.5010673999786377, 0.5166528000263497, 0.5996678000083193, 0.4668392000021413, 0.5513017000048421, 0.4183650999912061, 0.5504719999735244, 0.4346470999880694, 1.318892999959644, 0.500298600003589, 0.7505009999731556, 0.5678199999965727, 0.7673852000152692, 0.5006764999707229, 0.46810609998647124, 0.485359399986919, 0.5178725000005215, 0.61767740000505, 0.4671540000126697]",666,food,0,1,BR,1,2023-07-17_14h07.53.013,crystals,2022.2.4,59.9218618900582,
Hershey Kisses.jpg,stimuli/food/,stimuli/food/Hershey Kisses.jpg,0,0,0,0,0,55,55,33,,,,,129.55049750005128,130.2499850000022,2.275,0.6829739999957383,56,"[0.5670187000068836, 0.6003510999726132, 0.5008471999899484, 0.5015490999794565, 0.5027066000038758, 0.434700200043153, 0.7672392000094987, 0.40063849999569356, 0.40198680001776665, 0.43390860001090914, 0.467566600011196, 0.5501045000273734, 0.517008499999065, 0.6345393000519834, 0.6508275999804027, 0.48430989996995777, 0.6672604000195861, 0.6504704999970272, 0.5335963999968953, 0.4676152999745682, 0.8005847000167705, 0.5682247999939136, 0.5504213999956846, 0.6174147999845445, 0.5174580000457354, 0.6670690000173636, 0.400450799963437, 0.5501558000105433, 0.40072149998741224, 0.7347268000012264, 0.8851673000026494, 0.567442299972754, 0.6684697999735363, 0.433554399991408, 0.41666970000369474, 0.45056849997490644, 0.501060199982021, 0.51664729998447, 0.5996619000216015, 0.46683370001846924, 0.5512925999937579, 0.41835939994780347, 0.5504645999753848, 0.43464099999982864, 1.3188842999516055, 0.5002924000145867, 0.7504932999727316, 0.567810799984727, 0.7673791000270285, 0.5006705999840051, 0.46809989999746904, 0.4853531999979168, 0.517866900016088, 0.6176714000175707, 0.46714690001681447, 0.8342801000108011]","[0.5670241000480019, 0.6003563999547623, 0.5008520999690518, 0.5015553999692202, 0.5027142000035383, 0.4347076000412926, 0.7672446999931708, 0.40064529998926446, 0.4019935000105761, 0.43391919997520745, 0.4675721999956295, 0.5501105000148527, 0.5170143999857828, 0.634547499998007, 0.6508331000222825, 0.48431590001564473, 0.6672668000101112, 0.6504758999799378, 0.5336018999805674, 0.46762199996737763, 0.8005907000042498, 0.5682317999890074, 0.550427500042133, 0.6174205999705009, 0.5174630000256002, 0.6670756000094116, 0.4004760999814607, 0.5501616999972612, 0.40072749997489154, 0.7347327999887057, 0.8852075000177138, 0.5674502999754623, 0.6684767999686301, 0.4335624999948777, 0.4166770000010729, 0.45057440001983196, 0.5010673999786377, 0.5166528000263497, 0.5996678000083193, 0.4668392000021413, 0.5513017000048421, 0.4183650999912061, 0.5504719999735244, 0.4346470999880694, 1.318892999959644, 0.500298600003589, 0.7505009999731556, 0.5678199999965727, 0.7673852000152692, 0.5006764999707229, 0.46810609998647124, 0.485359399986919, 0.5178725000005215, 0.61767740000505, 0.4671540000126697, 0.8342865000013262]",666,food,0,1,BR,1,2023-07-17_14h07.53.013,crystals,2022.2.4,59.9218618900582,
soup with spoon.jpg,stimuli/food/,stimuli/food/soup with spoon.jpg,0,0,0,0,0,56,56,61,,,,,131.61665050004376,132.1166840000078,3.4524999999999997,0.4832944999798201,57,"[0.5670187000068836, 0.6003510999726132, 0.5008471999899484, 0.5015490999794565, 0.5027066000038758, 0.434700200043153, 0.7672392000094987, 0.40063849999569356, 0.40198680001776665, 0.43390860001090914, 0.467566600011196, 0.5501045000273734, 0.517008499999065, 0.6345393000519834, 0.6508275999804027, 0.48430989996995777, 0.6672604000195861, 0.6504704999970272, 0.5335963999968953, 0.4676152999745682, 0.8005847000167705, 0.5682247999939136, 0.5504213999956846, 0.6174147999845445, 0.5174580000457354, 0.6670690000173636, 0.400450799963437, 0.5501558000105433, 0.40072149998741224, 0.7347268000012264, 0.8851673000026494, 0.567442299972754, 0.6684697999735363, 0.433554399991408, 0.41666970000369474, 0.45056849997490644, 0.501060199982021, 0.51664729998447, 0.5996619000216015, 0.46683370001846924, 0.5512925999937579, 0.41835939994780347, 0.5504645999753848, 0.43464099999982864, 1.3188842999516055, 0.5002924000145867, 0.7504932999727316, 0.567810799984727, 0.7673791000270285, 0.5006705999840051, 0.46809989999746904, 0.4853531999979168, 0.517866900016088, 0.6176714000175707, 0.46714690001681447, 0.8342801000108011, 0.5005986000178382]","[0.5670241000480019, 0.6003563999547623, 0.5008520999690518, 0.5015553999692202, 0.5027142000035383, 0.4347076000412926, 0.7672446999931708, 0.40064529998926446, 0.4019935000105761, 0.43391919997520745, 0.4675721999956295, 0.5501105000148527, 0.5170143999857828, 0.634547499998007, 0.6508331000222825, 0.48431590001564473, 0.6672668000101112, 0.6504758999799378, 0.5336018999805674, 0.46762199996737763, 0.8005907000042498, 0.5682317999890074, 0.550427500042133, 0.6174205999705009, 0.5174630000256002, 0.6670756000094116, 0.4004760999814607, 0.5501616999972612, 0.40072749997489154, 0.7347327999887057, 0.8852075000177138, 0.5674502999754623, 0.6684767999686301, 0.4335624999948777, 0.4166770000010729, 0.45057440001983196, 0.5010673999786377, 0.5166528000263497, 0.5996678000083193, 0.4668392000021413, 0.5513017000048421, 0.4183650999912061, 0.5504719999735244, 0.4346470999880694, 1.318892999959644, 0.500298600003589, 0.7505009999731556, 0.5678199999965727, 0.7673852000152692, 0.5006764999707229, 0.46810609998647124, 0.485359399986919, 0.5178725000005215, 0.61767740000505, 0.4671540000126697, 0.8342865000013262, 0.5006046000053175]",666,food,0,1,BR,1,2023-07-17_14h07.53.013,crystals,2022.2.4,59.9218618900582,
celery and carrot sticks.jpg,stimuli/food/,stimuli/food/celery and carrot sticks.jpg,0,0,0,0,0,57,57,14,,,,,133.16668220004067,133.63410180003848,4.300000000000001,0.46644789999118075,58,"[0.5670187000068836, 0.6003510999726132, 0.5008471999899484, 0.5015490999794565, 0.5027066000038758, 0.434700200043153, 0.7672392000094987, 0.40063849999569356, 0.40198680001776665, 0.43390860001090914, 0.467566600011196, 0.5501045000273734, 0.517008499999065, 0.6345393000519834, 0.6508275999804027, 0.48430989996995777, 0.6672604000195861, 0.6504704999970272, 0.5335963999968953, 0.4676152999745682, 0.8005847000167705, 0.5682247999939136, 0.5504213999956846, 0.6174147999845445, 0.5174580000457354, 0.6670690000173636, 0.400450799963437, 0.5501558000105433, 0.40072149998741224, 0.7347268000012264, 0.8851673000026494, 0.567442299972754, 0.6684697999735363, 0.433554399991408, 0.41666970000369474, 0.45056849997490644, 0.501060199982021, 0.51664729998447, 0.5996619000216015, 0.46683370001846924, 0.5512925999937579, 0.41835939994780347, 0.5504645999753848, 0.43464099999982864, 1.3188842999516055, 0.5002924000145867, 0.7504932999727316, 0.567810799984727, 0.7673791000270285, 0.5006705999840051, 0.46809989999746904, 0.4853531999979168, 0.517866900016088, 0.6176714000175707, 0.46714690001681447, 0.8342801000108011, 0.5005986000178382, 0.46678989997599274]","[0.5670241000480019, 0.6003563999547623, 0.5008520999690518, 0.5015553999692202, 0.5027142000035383, 0.4347076000412926, 0.7672446999931708, 0.40064529998926446, 0.4019935000105761, 0.43391919997520745, 0.4675721999956295, 0.5501105000148527, 0.5170143999857828, 0.634547499998007, 0.6508331000222825, 0.48431590001564473, 0.6672668000101112, 0.6504758999799378, 0.5336018999805674, 0.46762199996737763, 0.8005907000042498, 0.5682317999890074, 0.550427500042133, 0.6174205999705009, 0.5174630000256002, 0.6670756000094116, 0.4004760999814607, 0.5501616999972612, 0.40072749997489154, 0.7347327999887057, 0.8852075000177138, 0.5674502999754623, 0.6684767999686301, 0.4335624999948777, 0.4166770000010729, 0.45057440001983196, 0.5010673999786377, 0.5166528000263497, 0.5996678000083193, 0.4668392000021413, 0.5513017000048421, 0.4183650999912061, 0.5504719999735244, 0.4346470999880694, 1.318892999959644, 0.500298600003589, 0.7505009999731556, 0.5678199999965727, 0.7673852000152692, 0.5006764999707229, 0.46810609998647124, 0.485359399986919, 0.5178725000005215, 0.61767740000505, 0.4671540000126697, 0.8342865000013262, 0.5006046000053175, 0.46679520001634955]",666,food,0,1,BR,1,2023-07-17_14h07.53.013,crystals,2022.2.4,59.9218618900582,
yogurt no spoon.jpg,stimuli/food/,stimuli/food/yogurt no spoon.jpg,0,0,0,0,0,58,58,74,,,,,134.65020040003583,135.25417010003002,5.2375,0.5173760000034235,59,"[0.5670187000068836, 0.6003510999726132, 0.5008471999899484, 0.5015490999794565, 0.5027066000038758, 0.434700200043153, 0.7672392000094987, 0.40063849999569356, 0.40198680001776665, 0.43390860001090914, 0.467566600011196, 0.5501045000273734, 0.517008499999065, 0.6345393000519834, 0.6508275999804027, 0.48430989996995777, 0.6672604000195861, 0.6504704999970272, 0.5335963999968953, 0.4676152999745682, 0.8005847000167705, 0.5682247999939136, 0.5504213999956846, 0.6174147999845445, 0.5174580000457354, 0.6670690000173636, 0.400450799963437, 0.5501558000105433, 0.40072149998741224, 0.7347268000012264, 0.8851673000026494, 0.567442299972754, 0.6684697999735363, 0.433554399991408, 0.41666970000369474, 0.45056849997490644, 0.501060199982021, 0.51664729998447, 0.5996619000216015, 0.46683370001846924, 0.5512925999937579, 0.41835939994780347, 0.5504645999753848, 0.43464099999982864, 1.3188842999516055, 0.5002924000145867, 0.7504932999727316, 0.567810799984727, 0.7673791000270285, 0.5006705999840051, 0.46809989999746904, 0.4853531999979168, 0.517866900016088, 0.6176714000175707, 0.46714690001681447, 0.8342801000108011, 0.5005986000178382, 0.46678989997599274, 0.43594260001555085]","[0.5670241000480019, 0.6003563999547623, 0.5008520999690518, 0.5015553999692202, 0.5027142000035383, 0.4347076000412926, 0.7672446999931708, 0.40064529998926446, 0.4019935000105761, 0.43391919997520745, 0.4675721999956295, 0.5501105000148527, 0.5170143999857828, 0.634547499998007, 0.6508331000222825, 0.48431590001564473, 0.6672668000101112, 0.6504758999799378, 0.5336018999805674, 0.46762199996737763, 0.8005907000042498, 0.5682317999890074, 0.550427500042133, 0.6174205999705009, 0.5174630000256002, 0.6670756000094116, 0.4004760999814607, 0.5501616999972612, 0.40072749997489154, 0.7347327999887057, 0.8852075000177138, 0.5674502999754623, 0.6684767999686301, 0.4335624999948777, 0.4166770000010729, 0.45057440001983196, 0.5010673999786377, 0.5166528000263497, 0.5996678000083193, 0.4668392000021413, 0.5513017000048421, 0.4183650999912061, 0.5504719999735244, 0.4346470999880694, 1.318892999959644, 0.500298600003589, 0.7505009999731556, 0.5678199999965727, 0.7673852000152692, 0.5006764999707229, 0.46810609998647124, 0.485359399986919, 0.5178725000005215, 0.61767740000505, 0.4671540000126697, 0.8342865000013262, 0.5006046000053175, 0.46679520001634955, 0.4359485000022687]",666,food,0,1,BR,1,2023-07-17_14h07.53.013,crystals,2022.2.4,59.9218618900582,
Pretzels.jpg,stimuli/food/,stimuli/food/Pretzels.jpg,0,0,0,0,0,59,59,49,,,,,136.20034270000178,136.80040560005,6.6812499999999995,0.5834205999854021,60,"[0.5670187000068836, 0.6003510999726132, 0.5008471999899484, 0.5015490999794565, 0.5027066000038758, 0.434700200043153, 0.7672392000094987, 0.40063849999569356, 0.40198680001776665, 0.43390860001090914, 0.467566600011196, 0.5501045000273734, 0.517008499999065, 0.6345393000519834, 0.6508275999804027, 0.48430989996995777, 0.6672604000195861, 0.6504704999970272, 0.5335963999968953, 0.4676152999745682, 0.8005847000167705, 0.5682247999939136, 0.5504213999956846, 0.6174147999845445, 0.5174580000457354, 0.6670690000173636, 0.400450799963437, 0.5501558000105433, 0.40072149998741224, 0.7347268000012264, 0.8851673000026494, 0.567442299972754, 0.6684697999735363, 0.433554399991408, 0.41666970000369474, 0.45056849997490644, 0.501060199982021, 0.51664729998447, 0.5996619000216015, 0.46683370001846924, 0.5512925999937579, 0.41835939994780347, 0.5504645999753848, 0.43464099999982864, 1.3188842999516055, 0.5002924000145867, 0.7504932999727316, 0.567810799984727, 0.7673791000270285, 0.5006705999840051, 0.46809989999746904, 0.4853531999979168, 0.517866900016088, 0.6176714000175707, 0.46714690001681447, 0.8342801000108011, 0.5005986000178382, 0.46678989997599274, 0.43594260001555085, 0.8338482999824919]","[0.5670241000480019, 0.6003563999547623, 0.5008520999690518, 0.5015553999692202, 0.5027142000035383, 0.4347076000412926, 0.7672446999931708, 0.40064529998926446, 0.4019935000105761, 0.43391919997520745, 0.4675721999956295, 0.5501105000148527, 0.5170143999857828, 0.634547499998007, 0.6508331000222825, 0.48431590001564473, 0.6672668000101112, 0.6504758999799378, 0.5336018999805674, 0.46762199996737763, 0.8005907000042498, 0.5682317999890074, 0.550427500042133, 0.6174205999705009, 0.5174630000256002, 0.6670756000094116, 0.4004760999814607, 0.5501616999972612, 0.40072749997489154, 0.7347327999887057, 0.8852075000177138, 0.5674502999754623, 0.6684767999686301, 0.4335624999948777, 0.4166770000010729, 0.45057440001983196, 0.5010673999786377, 0.5166528000263497, 0.5996678000083193, 0.4668392000021413, 0.5513017000048421, 0.4183650999912061, 0.5504719999735244, 0.4346470999880694, 1.318892999959644, 0.500298600003589, 0.7505009999731556, 0.5678199999965727, 0.7673852000152692, 0.5006764999707229, 0.46810609998647124, 0.485359399986919, 0.5178725000005215, 0.61767740000505, 0.4671540000126697, 0.8342865000013262, 0.5006046000053175, 0.46679520001634955, 0.4359485000022687, 0.8338539999676868]",666,food,0,1,BR,1,2023-07-17_14h07.53.013,crystals,2022.2.4,59.9218618900582,
PB.jpg,stimuli/food/,stimuli/food/PB.jpg,0,0,0,0,0,60,60,45,,,,,138.18382590002147,138.8837478000205,7.41625,0.6994668000261299,61,"[0.5670187000068836, 0.6003510999726132, 0.5008471999899484, 0.5015490999794565, 0.5027066000038758, 0.434700200043153, 0.7672392000094987, 0.40063849999569356, 0.40198680001776665, 0.43390860001090914, 0.467566600011196, 0.5501045000273734, 0.517008499999065, 0.6345393000519834, 0.6508275999804027, 0.48430989996995777, 0.6672604000195861, 0.6504704999970272, 0.5335963999968953, 0.4676152999745682, 0.8005847000167705, 0.5682247999939136, 0.5504213999956846, 0.6174147999845445, 0.5174580000457354, 0.6670690000173636, 0.400450799963437, 0.5501558000105433, 0.40072149998741224, 0.7347268000012264, 0.8851673000026494, 0.567442299972754, 0.6684697999735363, 0.433554399991408, 0.41666970000369474, 0.45056849997490644, 0.501060199982021, 0.51664729998447, 0.5996619000216015, 0.46683370001846924, 0.5512925999937579, 0.41835939994780347, 0.5504645999753848, 0.43464099999982864, 1.3188842999516055, 0.5002924000145867, 0.7504932999727316, 0.567810799984727, 0.7673791000270285, 0.5006705999840051, 0.46809989999746904, 0.4853531999979168, 0.517866900016088, 0.6176714000175707, 0.46714690001681447, 0.8342801000108011, 0.5005986000178382, 0.46678989997599274, 0.43594260001555085, 0.8338482999824919, 0.5006961000035517]","[0.5670241000480019, 0.6003563999547623, 0.5008520999690518, 0.5015553999692202, 0.5027142000035383, 0.4347076000412926, 0.7672446999931708, 0.40064529998926446, 0.4019935000105761, 0.43391919997520745, 0.4675721999956295, 0.5501105000148527, 0.5170143999857828, 0.634547499998007, 0.6508331000222825, 0.48431590001564473, 0.6672668000101112, 0.6504758999799378, 0.5336018999805674, 0.46762199996737763, 0.8005907000042498, 0.5682317999890074, 0.550427500042133, 0.6174205999705009, 0.5174630000256002, 0.6670756000094116, 0.4004760999814607, 0.5501616999972612, 0.40072749997489154, 0.7347327999887057, 0.8852075000177138, 0.5674502999754623, 0.6684767999686301, 0.4335624999948777, 0.4166770000010729, 0.45057440001983196, 0.5010673999786377, 0.5166528000263497, 0.5996678000083193, 0.4668392000021413, 0.5513017000048421, 0.4183650999912061, 0.5504719999735244, 0.4346470999880694, 1.318892999959644, 0.500298600003589, 0.7505009999731556, 0.5678199999965727, 0.7673852000152692, 0.5006764999707229, 0.46810609998647124, 0.485359399986919, 0.5178725000005215, 0.61767740000505, 0.4671540000126697, 0.8342865000013262, 0.5006046000053175, 0.46679520001634955, 0.4359485000022687, 0.8338539999676868, 0.5007019000477158]",666,food,0,1,BR,1,2023-07-17_14h07.53.013,crystals,2022.2.4,59.9218618900582,
raisins.jpg,stimuli/food/,stimuli/food/raisins.jpg,0,0,0,0,0,61,61,51,,,,,139.9337174000102,140.40043950005202,8.455,0.44972400000551715,62,"[0.5670187000068836, 0.6003510999726132, 0.5008471999899484, 0.5015490999794565, 0.5027066000038758, 0.434700200043153, 0.7672392000094987, 0.40063849999569356, 0.40198680001776665, 0.43390860001090914, 0.467566600011196, 0.5501045000273734, 0.517008499999065, 0.6345393000519834, 0.6508275999804027, 0.48430989996995777, 0.6672604000195861, 0.6504704999970272, 0.5335963999968953, 0.4676152999745682, 0.8005847000167705, 0.5682247999939136, 0.5504213999956846, 0.6174147999845445, 0.5174580000457354, 0.6670690000173636, 0.400450799963437, 0.5501558000105433, 0.40072149998741224, 0.7347268000012264, 0.8851673000026494, 0.567442299972754, 0.6684697999735363, 0.433554399991408, 0.41666970000369474, 0.45056849997490644, 0.501060199982021, 0.51664729998447, 0.5996619000216015, 0.46683370001846924, 0.5512925999937579, 0.41835939994780347, 0.5504645999753848, 0.43464099999982864, 1.3188842999516055, 0.5002924000145867, 0.7504932999727316, 0.567810799984727, 0.7673791000270285, 0.5006705999840051, 0.46809989999746904, 0.4853531999979168, 0.517866900016088, 0.6176714000175707, 0.46714690001681447, 0.8342801000108011, 0.5005986000178382, 0.46678989997599274, 0.43594260001555085, 0.8338482999824919, 0.5006961000035517, 0.5340956999571063]","[0.5670241000480019, 0.6003563999547623, 0.5008520999690518, 0.5015553999692202, 0.5027142000035383, 0.4347076000412926, 0.7672446999931708, 0.40064529998926446, 0.4019935000105761, 0.43391919997520745, 0.4675721999956295, 0.5501105000148527, 0.5170143999857828, 0.634547499998007, 0.6508331000222825, 0.48431590001564473, 0.6672668000101112, 0.6504758999799378, 0.5336018999805674, 0.46762199996737763, 0.8005907000042498, 0.5682317999890074, 0.550427500042133, 0.6174205999705009, 0.5174630000256002, 0.6670756000094116, 0.4004760999814607, 0.5501616999972612, 0.40072749997489154, 0.7347327999887057, 0.8852075000177138, 0.5674502999754623, 0.6684767999686301, 0.4335624999948777, 0.4166770000010729, 0.45057440001983196, 0.5010673999786377, 0.5166528000263497, 0.5996678000083193, 0.4668392000021413, 0.5513017000048421, 0.4183650999912061, 0.5504719999735244, 0.4346470999880694, 1.318892999959644, 0.500298600003589, 0.7505009999731556, 0.5678199999965727, 0.7673852000152692, 0.5006764999707229, 0.46810609998647124, 0.485359399986919, 0.5178725000005215, 0.61767740000505, 0.4671540000126697, 0.8342865000013262, 0.5006046000053175, 0.46679520001634955, 0.4359485000022687, 0.8338539999676868, 0.5007019000477158, 0.5341014000005089]",666,food,0,1,BR,1,2023-07-17_14h07.53.013,crystals,2022.2.4,59.9218618900582,
seaweed.jpg,stimuli/food/,stimuli/food/seaweed.jpg,0,0,0,0,0,62,62,59,,,,,141.49995740002487,142.03372490004404,9.16375,0.5322769999620505,63,"[0.5670187000068836, 0.6003510999726132, 0.5008471999899484, 0.5015490999794565, 0.5027066000038758, 0.434700200043153, 0.7672392000094987, 0.40063849999569356, 0.40198680001776665, 0.43390860001090914, 0.467566600011196, 0.5501045000273734, 0.517008499999065, 0.6345393000519834, 0.6508275999804027, 0.48430989996995777, 0.6672604000195861, 0.6504704999970272, 0.5335963999968953, 0.4676152999745682, 0.8005847000167705, 0.5682247999939136, 0.5504213999956846, 0.6174147999845445, 0.5174580000457354, 0.6670690000173636, 0.400450799963437, 0.5501558000105433, 0.40072149998741224, 0.7347268000012264, 0.8851673000026494, 0.567442299972754, 0.6684697999735363, 0.433554399991408, 0.41666970000369474, 0.45056849997490644, 0.501060199982021, 0.51664729998447, 0.5996619000216015, 0.46683370001846924, 0.5512925999937579, 0.41835939994780347, 0.5504645999753848, 0.43464099999982864, 1.3188842999516055, 0.5002924000145867, 0.7504932999727316, 0.567810799984727, 0.7673791000270285, 0.5006705999840051, 0.46809989999746904, 0.4853531999979168, 0.517866900016088, 0.6176714000175707, 0.46714690001681447, 0.8342801000108011, 0.5005986000178382, 0.46678989997599274, 0.43594260001555085, 0.8338482999824919, 0.5006961000035517, 0.5340956999571063, 0.7188497000024654]","[0.5670241000480019, 0.6003563999547623, 0.5008520999690518, 0.5015553999692202, 0.5027142000035383, 0.4347076000412926, 0.7672446999931708, 0.40064529998926446, 0.4019935000105761, 0.43391919997520745, 0.4675721999956295, 0.5501105000148527, 0.5170143999857828, 0.634547499998007, 0.6508331000222825, 0.48431590001564473, 0.6672668000101112, 0.6504758999799378, 0.5336018999805674, 0.46762199996737763, 0.8005907000042498, 0.5682317999890074, 0.550427500042133, 0.6174205999705009, 0.5174630000256002, 0.6670756000094116, 0.4004760999814607, 0.5501616999972612, 0.40072749997489154, 0.7347327999887057, 0.8852075000177138, 0.5674502999754623, 0.6684767999686301, 0.4335624999948777, 0.4166770000010729, 0.45057440001983196, 0.5010673999786377, 0.5166528000263497, 0.5996678000083193, 0.4668392000021413, 0.5513017000048421, 0.4183650999912061, 0.5504719999735244, 0.4346470999880694, 1.318892999959644, 0.500298600003589, 0.7505009999731556, 0.5678199999965727, 0.7673852000152692, 0.5006764999707229, 0.46810609998647124, 0.485359399986919, 0.5178725000005215, 0.61767740000505, 0.4671540000126697, 0.8342865000013262, 0.5006046000053175, 0.46679520001634955, 0.4359485000022687, 0.8338539999676868, 0.5007019000477158, 0.5341014000005089, 0.7188561999937519]",666,food,0,1,BR,1,2023-07-17_14h07.53.013,crystals,2022.2.4,59.9218618900582,
rigatoni.jpg,stimuli/food/,stimuli/food/rigatoni.jpg,0,0,0,0,0,63,63,55,,,,,143.2833030000329,143.88417760003358,8.342500000000001,0.5846694000065327,64,"[0.5670187000068836, 0.6003510999726132, 0.5008471999899484, 0.5015490999794565, 0.5027066000038758, 0.434700200043153, 0.7672392000094987, 0.40063849999569356, 0.40198680001776665, 0.43390860001090914, 0.467566600011196, 0.5501045000273734, 0.517008499999065, 0.6345393000519834, 0.6508275999804027, 0.48430989996995777, 0.6672604000195861, 0.6504704999970272, 0.5335963999968953, 0.4676152999745682, 0.8005847000167705, 0.5682247999939136, 0.5504213999956846, 0.6174147999845445, 0.5174580000457354, 0.6670690000173636, 0.400450799963437, 0.5501558000105433, 0.40072149998741224, 0.7347268000012264, 0.8851673000026494, 0.567442299972754, 0.6684697999735363, 0.433554399991408, 0.41666970000369474, 0.45056849997490644, 0.501060199982021, 0.51664729998447, 0.5996619000216015, 0.46683370001846924, 0.5512925999937579, 0.41835939994780347, 0.5504645999753848, 0.43464099999982864, 1.3188842999516055, 0.5002924000145867, 0.7504932999727316, 0.567810799984727, 0.7673791000270285, 0.5006705999840051, 0.46809989999746904, 0.4853531999979168, 0.517866900016088, 0.6176714000175707, 0.46714690001681447, 0.8342801000108011, 0.5005986000178382, 0.46678989997599274, 0.43594260001555085, 0.8338482999824919, 0.5006961000035517, 0.5340956999571063, 0.7188497000024654, 0.6848806000198238]","[0.5670241000480019, 0.6003563999547623, 0.5008520999690518, 0.5015553999692202, 0.5027142000035383, 0.4347076000412926, 0.7672446999931708, 0.40064529998926446, 0.4019935000105761, 0.43391919997520745, 0.4675721999956295, 0.5501105000148527, 0.5170143999857828, 0.634547499998007, 0.6508331000222825, 0.48431590001564473, 0.6672668000101112, 0.6504758999799378, 0.5336018999805674, 0.46762199996737763, 0.8005907000042498, 0.5682317999890074, 0.550427500042133, 0.6174205999705009, 0.5174630000256002, 0.6670756000094116, 0.4004760999814607, 0.5501616999972612, 0.40072749997489154, 0.7347327999887057, 0.8852075000177138, 0.5674502999754623, 0.6684767999686301, 0.4335624999948777, 0.4166770000010729, 0.45057440001983196, 0.5010673999786377, 0.5166528000263497, 0.5996678000083193, 0.4668392000021413, 0.5513017000048421, 0.4183650999912061, 0.5504719999735244, 0.4346470999880694, 1.318892999959644, 0.500298600003589, 0.7505009999731556, 0.5678199999965727, 0.7673852000152692, 0.5006764999707229, 0.46810609998647124, 0.485359399986919, 0.5178725000005215, 0.61767740000505, 0.4671540000126697, 0.8342865000013262, 0.5006046000053175, 0.46679520001634955, 0.4359485000022687, 0.8338539999676868, 0.5007019000477158, 0.5341014000005089, 0.7188561999937519, 0.6848862000042573]",666,food,0,1,BR,1,2023-07-17_14h07.53.013,crystals,2022.2.4,59.9218618900582,
