foodItem,path,image,skip_food.thisRepN,skip_food.thisTrialN,skip_food.thisN,skip_food.thisIndex,food_rating_loop.thisRepN,food_rating_loop.thisTrialN,food_rating_loop.thisN,food_rating_loop.thisIndex,start_food_rat_key.started,start_food_rat_text.started,start_food_rat_key.keys,start_food_rat_key.rt,foodImage.started,next_button.started,food_slider.response,food_slider.rt,next_button.numClicks,next_button.timesOn,next_button.timesOff,participant,group,extra,practice,rainbow,dorate,date,expName,psychopyVersion,frameRate,
m_and_m.jpg,stimuli/food/,stimuli/food/m_and_m.jpg,0,0,0,0,0,0,0,38,23.22350120008923,23.22350120008923,right,0.9163962998427451,24.2837567999959,25.93391970009543,6.876250000000001,1.592196499928832,1,[0.5864532000850886],[0.5864595000166446],666,food,0,1,BR,1,2023-06-30_13h30.32.287,crystals,2022.2.4,30.017058702048097,
mozarella sticks.jpg,stimuli/food/,stimuli/food/mozarella sticks.jpg,0,0,0,0,0,1,1,42,,,,,27.083821300184354,27.92088450002484,7.465,0.798145700013265,2,"[0.5864532000850886, 0.6734186999965459]","[0.5864595000166446, 0.6734251999296248]",666,food,0,1,BR,1,2023-06-30_13h30.32.287,crystals,2022.2.4,30.017058702048097,
reeses.jpg,stimuli/food/,stimuli/food/reeses.jpg,0,0,0,0,0,2,2,52,,,,,29.167028200114146,30.000541500048712,2.91625,0.7742210000287741,3,"[0.5864532000850886, 0.6734186999965459, 0.5747257999610156]","[0.5864595000166446, 0.6734251999296248, 0.5747322000097483]",666,food,0,1,BR,1,2023-06-30_13h30.32.287,crystals,2022.2.4,30.017058702048097,
grilled chicken strips.jpg,stimuli/food/,stimuli/food/grilled chicken strips.jpg,0,0,0,0,0,3,3,32,,,,,31.117125099990517,31.774446400115266,5.5,0.6149601000361145,4,"[0.5864532000850886, 0.6734186999965459, 0.5747257999610156, 0.38428670004941523]","[0.5864595000166446, 0.6734251999296248, 0.5747322000097483, 0.3842927000951022]",666,food,0,1,BR,1,2023-06-30_13h30.32.287,crystals,2022.2.4,30.017058702048097,
turkey sandwich.jpg,stimuli/food/,stimuli/food/turkey sandwich.jpg,0,0,0,0,0,4,4,71,,,,,32.71710480004549,33.53065610001795,9.37375,0.7816494000144303,5,"[0.5864532000850886, 0.6734186999965459, 0.5747257999610156, 0.38428670004941523, 0.5801436000037938]","[0.5864595000166446, 0.6734251999296248, 0.5747322000097483, 0.3842927000951022, 0.5801566999871284]",666,food,0,1,BR,1,2023-06-30_13h30.32.287,crystals,2022.2.4,30.017058702048097,
american cheese.jpg,stimuli/food/,stimuli/food/american cheese.jpg,0,0,0,0,0,5,5,2,,,,,34.68390790000558,35.36728740017861,7.945,0.6158604000229388,6,"[0.5864532000850886, 0.6734186999965459, 0.5747257999610156, 0.38428670004941523, 0.5801436000037938, 0.3818310999777168]","[0.5864595000166446, 0.6734251999296248, 0.5747322000097483, 0.3842927000951022, 0.5801566999871284, 0.3818384001497179]",666,food,0,1,BR,1,2023-06-30_13h30.32.287,crystals,2022.2.4,30.017058702048097,
string cheese.jpg,stimuli/food/,stimuli/food/string cheese.jpg,0,0,0,0,0,6,6,66,,,,,36.350881500169635,37.0118562001735,1.5962499999999997,0.6650078999809921,7,"[0.5864532000850886, 0.6734186999965459, 0.5747257999610156, 0.38428670004941523, 0.5801436000037938, 0.3818310999777168, 0.5357550999615341]","[0.5864595000166446, 0.6734251999296248, 0.5747322000097483, 0.3842927000951022, 0.5801566999871284, 0.3818384001497179, 0.5357609000056982]",666,food,0,1,BR,1,2023-06-30_13h30.32.287,crystals,2022.2.4,30.017058702048097,
strawberries.jpg,stimuli/food/,stimuli/food/strawberries.jpg,0,0,0,0,0,7,7,65,,,,,38.0701441001147,38.76737330015749,3.80875,0.6227021000813693,8,"[0.5864532000850886, 0.6734186999965459, 0.5747257999610156, 0.38428670004941523, 0.5801436000037938, 0.3818310999777168, 0.5357550999615341, 0.5368288999889046]","[0.5864595000166446, 0.6734251999296248, 0.5747322000097483, 0.3842927000951022, 0.5801566999871284, 0.3818384001497179, 0.5357609000056982, 0.5368351000361145]",666,food,0,1,BR,1,2023-06-30_13h30.32.287,crystals,2022.2.4,30.017058702048097,
baguette oil.jpg,stimuli/food/,stimuli/food/baguette oil.jpg,0,0,0,0,0,8,8,8,,,,,39.83415740006603,40.40237480006181,5.5112499999999995,0.5313711001072079,9,"[0.5864532000850886, 0.6734186999965459, 0.5747257999610156, 0.38428670004941523, 0.5801436000037938, 0.3818310999777168, 0.5357550999615341, 0.5368288999889046, 0.5510331999976188]","[0.5864595000166446, 0.6734251999296248, 0.5747322000097483, 0.3842927000951022, 0.5801566999871284, 0.3818384001497179, 0.5357609000056982, 0.5368351000361145, 0.5510409001726657]",666,food,0,1,BR,1,2023-06-30_13h30.32.287,crystals,2022.2.4,30.017058702048097,
kiwi.jpg,stimuli/food/,stimuli/food/kiwi.jpg,0,0,0,0,0,9,9,36,,,,,41.517474099993706,42.234085500007495,1.8175,0.6650823999661952,10,"[0.5864532000850886, 0.6734186999965459, 0.5747257999610156, 0.38428670004941523, 0.5801436000037938, 0.3818310999777168, 0.5357550999615341, 0.5368288999889046, 0.5510331999976188, 0.7028651000000536]","[0.5864595000166446, 0.6734251999296248, 0.5747322000097483, 0.3842927000951022, 0.5801566999871284, 0.3818384001497179, 0.5357609000056982, 0.5368351000361145, 0.5510409001726657, 0.7028717000503093]",666,food,0,1,BR,1,2023-06-30_13h30.32.287,crystals,2022.2.4,30.017058702048097,
PB.jpg,stimuli/food/,stimuli/food/PB.jpg,0,0,0,0,0,10,10,45,,,,,43.500861100154,44.35245030000806,9.535,0.8476013999897987,11,"[0.5864532000850886, 0.6734186999965459, 0.5747257999610156, 0.38428670004941523, 0.5801436000037938, 0.3818310999777168, 0.5357550999615341, 0.5368288999889046, 0.5510331999976188, 0.7028651000000536, 0.7285207000095397]","[0.5864595000166446, 0.6734251999296248, 0.5747322000097483, 0.3842927000951022, 0.5801566999871284, 0.3818384001497179, 0.5357609000056982, 0.5368351000361145, 0.5510409001726657, 0.7028717000503093, 0.7285275999456644]",666,food,0,1,BR,1,2023-06-30_13h30.32.287,crystals,2022.2.4,30.017058702048097,
Hershey Kisses.jpg,stimuli/food/,stimuli/food/Hershey Kisses.jpg,0,0,0,0,0,11,11,33,,,,,45.667836300097406,46.24617430008948,7.2437499999999995,0.5206974998582155,12,"[0.5864532000850886, 0.6734186999965459, 0.5747257999610156, 0.38428670004941523, 0.5801436000037938, 0.3818310999777168, 0.5357550999615341, 0.5368288999889046, 0.5510331999976188, 0.7028651000000536, 0.7285207000095397, 0.49999179993756115]","[0.5864595000166446, 0.6734251999296248, 0.5747322000097483, 0.3842927000951022, 0.5801566999871284, 0.3818384001497179, 0.5357609000056982, 0.5368351000361145, 0.5510409001726657, 0.7028717000503093, 0.7285275999456644, 0.4999983999878168]",666,food,0,1,BR,1,2023-06-30_13h30.32.287,crystals,2022.2.4,30.017058702048097,
steak.jpg,stimuli/food/,stimuli/food/steak.jpg,0,0,0,0,0,12,12,64,,,,,47.33411940000951,48.06771309999749,8.51125,0.6926993997767568,13,"[0.5864532000850886, 0.6734186999965459, 0.5747257999610156, 0.38428670004941523, 0.5801436000037938, 0.3818310999777168, 0.5357550999615341, 0.5368288999889046, 0.5510331999976188, 0.7028651000000536, 0.7285207000095397, 0.49999179993756115, 0.5812738998793066]","[0.5864595000166446, 0.6734251999296248, 0.5747322000097483, 0.3842927000951022, 0.5801566999871284, 0.3818384001497179, 0.5357609000056982, 0.5368351000361145, 0.5510409001726657, 0.7028717000503093, 0.7285275999456644, 0.4999983999878168, 0.5812804999295622]",666,food,0,1,BR,1,2023-06-30_13h30.32.287,crystals,2022.2.4,30.017058702048097,
salad w chicken.jpg,stimuli/food/,stimuli/food/salad w chicken.jpg,0,0,0,0,0,13,13,57,,,,,49.21769790002145,49.79054390010424,1.915,0.5644574998877943,14,"[0.5864532000850886, 0.6734186999965459, 0.5747257999610156, 0.38428670004941523, 0.5801436000037938, 0.3818310999777168, 0.5357550999615341, 0.5368288999889046, 0.5510331999976188, 0.7028651000000536, 0.7285207000095397, 0.49999179993756115, 0.5812738998793066, 0.7366690000053495]","[0.5864595000166446, 0.6734251999296248, 0.5747322000097483, 0.3842927000951022, 0.5801566999871284, 0.3818384001497179, 0.5357609000056982, 0.5368351000361145, 0.5510409001726657, 0.7028717000503093, 0.7285275999456644, 0.4999983999878168, 0.5812804999295622, 0.7366752000525594]",666,food,0,1,BR,1,2023-06-30_13h30.32.287,crystals,2022.2.4,30.017058702048097,
lollipops.jpg,stimuli/food/,stimuli/food/lollipops.jpg,0,0,0,0,0,14,14,37,,,,,51.08432770008221,52.70090290019289,4.86625,1.5451001999899745,15,"[0.5864532000850886, 0.6734186999965459, 0.5747257999610156, 0.38428670004941523, 0.5801436000037938, 0.3818310999777168, 0.5357550999615341, 0.5368288999889046, 0.5510331999976188, 0.7028651000000536, 0.7285207000095397, 0.49999179993756115, 0.5812738998793066, 0.7366690000053495, 0.9167863000184298]","[0.5864595000166446, 0.6734251999296248, 0.5747322000097483, 0.3842927000951022, 0.5801566999871284, 0.3818384001497179, 0.5357609000056982, 0.5368351000361145, 0.5510409001726657, 0.7028717000503093, 0.7285275999456644, 0.4999983999878168, 0.5812804999295622, 0.7366752000525594, 0.9167927000671625]",666,food,0,1,BR,1,2023-06-30_13h30.32.287,crystals,2022.2.4,30.017058702048097,
apple slices.jpg,stimuli/food/,stimuli/food/apple slices.jpg,0,0,0,0,0,15,15,3,,,,,54.21762760006823,54.97742979996838,7.5025,0.745169100118801,16,"[0.5864532000850886, 0.6734186999965459, 0.5747257999610156, 0.38428670004941523, 0.5801436000037938, 0.3818310999777168, 0.5357550999615341, 0.5368288999889046, 0.5510331999976188, 0.7028651000000536, 0.7285207000095397, 0.49999179993756115, 0.5812738998793066, 0.7366690000053495, 0.9167863000184298, 0.5030241999775171]","[0.5864595000166446, 0.6734251999296248, 0.5747322000097483, 0.3842927000951022, 0.5801566999871284, 0.3818384001497179, 0.5357609000056982, 0.5368351000361145, 0.5510409001726657, 0.7028717000503093, 0.7285275999456644, 0.4999983999878168, 0.5812804999295622, 0.7366752000525594, 0.9167927000671625, 0.5030302999075502]",666,food,0,1,BR,1,2023-06-30_13h30.32.287,crystals,2022.2.4,30.017058702048097,
soy chips.jpg,stimuli/food/,stimuli/food/soy chips.jpg,0,0,0,0,0,16,16,63,,,,,56.034391900058836,57.04384730011225,8.39875,0.9906210000626743,17,"[0.5864532000850886, 0.6734186999965459, 0.5747257999610156, 0.38428670004941523, 0.5801436000037938, 0.3818310999777168, 0.5357550999615341, 0.5368288999889046, 0.5510331999976188, 0.7028651000000536, 0.7285207000095397, 0.49999179993756115, 0.5812738998793066, 0.7366690000053495, 0.9167863000184298, 0.5030241999775171, 0.8529848998878151]","[0.5864595000166446, 0.6734251999296248, 0.5747322000097483, 0.3842927000951022, 0.5801566999871284, 0.3818384001497179, 0.5357609000056982, 0.5368351000361145, 0.5510409001726657, 0.7028717000503093, 0.7285275999456644, 0.4999983999878168, 0.5812804999295622, 0.7366752000525594, 0.9167927000671625, 0.5030302999075502, 0.8529912000522017]",666,food,0,1,BR,1,2023-06-30_13h30.32.287,crystals,2022.2.4,30.017058702048097,
raisin bran w milk.jpg,stimuli/food/,stimuli/food/raisin bran w milk.jpg,0,0,0,0,0,17,17,50,,,,,58.49953870009631,59.4844876001589,2.04625,0.9295626999810338,18,"[0.5864532000850886, 0.6734186999965459, 0.5747257999610156, 0.38428670004941523, 0.5801436000037938, 0.3818310999777168, 0.5357550999615341, 0.5368288999889046, 0.5510331999976188, 0.7028651000000536, 0.7285207000095397, 0.49999179993756115, 0.5812738998793066, 0.7366690000053495, 0.9167863000184298, 0.5030241999775171, 0.8529848998878151, 0.5344402999617159]","[0.5864595000166446, 0.6734251999296248, 0.5747322000097483, 0.3842927000951022, 0.5801566999871284, 0.3818384001497179, 0.5357609000056982, 0.5368351000361145, 0.5510409001726657, 0.7028717000503093, 0.7285275999456644, 0.4999983999878168, 0.5812804999295622, 0.7366752000525594, 0.9167927000671625, 0.5030302999075502, 0.8529912000522017, 0.5344527000561357]",666,food,0,1,BR,1,2023-06-30_13h30.32.287,crystals,2022.2.4,30.017058702048097,
saltines.jpg,stimuli/food/,stimuli/food/saltines.jpg,0,0,0,0,0,18,18,58,,,,,60.567809500033036,61.384485400049016,6.4975000000000005,0.774659699993208,19,"[0.5864532000850886, 0.6734186999965459, 0.5747257999610156, 0.38428670004941523, 0.5801436000037938, 0.3818310999777168, 0.5357550999615341, 0.5368288999889046, 0.5510331999976188, 0.7028651000000536, 0.7285207000095397, 0.49999179993756115, 0.5812738998793066, 0.7366690000053495, 0.9167863000184298, 0.5030241999775171, 0.8529848998878151, 0.5344402999617159, 0.5077323999721557]","[0.5864595000166446, 0.6734251999296248, 0.5747322000097483, 0.3842927000951022, 0.5801566999871284, 0.3818384001497179, 0.5357609000056982, 0.5368351000361145, 0.5510409001726657, 0.7028717000503093, 0.7285275999456644, 0.4999983999878168, 0.5812804999295622, 0.7366752000525594, 0.9167927000671625, 0.5030302999075502, 0.8529912000522017, 0.5344527000561357, 0.5077382000163198]",666,food,0,1,BR,1,2023-06-30_13h30.32.287,crystals,2022.2.4,30.017058702048097,
hotdog w must.jpg,stimuli/food/,stimuli/food/hotdog w must.jpg,0,0,0,0,0,19,19,34,,,,,62.451017800020054,63.11799339996651,7.5962499999999995,0.6152752998750657,20,"[0.5864532000850886, 0.6734186999965459, 0.5747257999610156, 0.38428670004941523, 0.5801436000037938, 0.3818310999777168, 0.5357550999615341, 0.5368288999889046, 0.5510331999976188, 0.7028651000000536, 0.7285207000095397, 0.49999179993756115, 0.5812738998793066, 0.7366690000053495, 0.9167863000184298, 0.5030241999775171, 0.8529848998878151, 0.5344402999617159, 0.5077323999721557, 0.48188869981095195]","[0.5864595000166446, 0.6734251999296248, 0.5747322000097483, 0.3842927000951022, 0.5801566999871284, 0.3818384001497179, 0.5357609000056982, 0.5368351000361145, 0.5510409001726657, 0.7028717000503093, 0.7285275999456644, 0.4999983999878168, 0.5812804999295622, 0.7366752000525594, 0.9167927000671625, 0.5030302999075502, 0.8529912000522017, 0.5344527000561357, 0.5077382000163198, 0.4818950998596847]",666,food,0,1,BR,1,2023-06-30_13h30.32.287,crystals,2022.2.4,30.017058702048097,
pizza.jpg,stimuli/food/,stimuli/food/pizza.jpg,0,0,0,0,0,20,20,48,,,,,64.13440980017185,64.85130230011418,3.71125,0.6650833999738097,21,"[0.5864532000850886, 0.6734186999965459, 0.5747257999610156, 0.38428670004941523, 0.5801436000037938, 0.3818310999777168, 0.5357550999615341, 0.5368288999889046, 0.5510331999976188, 0.7028651000000536, 0.7285207000095397, 0.49999179993756115, 0.5812738998793066, 0.7366690000053495, 0.9167863000184298, 0.5030241999775171, 0.8529848998878151, 0.5344402999617159, 0.5077323999721557, 0.48188869981095195, 0.33214360009878874]","[0.5864595000166446, 0.6734251999296248, 0.5747322000097483, 0.3842927000951022, 0.5801566999871284, 0.3818384001497179, 0.5357609000056982, 0.5368351000361145, 0.5510409001726657, 0.7028717000503093, 0.7285275999456644, 0.4999983999878168, 0.5812804999295622, 0.7366752000525594, 0.9167927000671625, 0.5030302999075502, 0.8529912000522017, 0.5344527000561357, 0.5077382000163198, 0.4818950998596847, 0.3321519000455737]",666,food,0,1,BR,1,2023-06-30_13h30.32.287,crystals,2022.2.4,30.017058702048097,
pickles.jpg,stimuli/food/,stimuli/food/pickles.jpg,0,0,0,0,0,21,21,47,,,,,66.38483090000227,67.05130819999613,9.775,1.2669046001974493,22,"[0.5864532000850886, 0.6734186999965459, 0.5747257999610156, 0.38428670004941523, 0.5801436000037938, 0.3818310999777168, 0.5357550999615341, 0.5368288999889046, 0.5510331999976188, 0.7028651000000536, 0.7285207000095397, 0.49999179993756115, 0.5812738998793066, 0.7366690000053495, 0.9167863000184298, 0.5030241999775171, 0.8529848998878151, 0.5344402999617159, 0.5077323999721557, 0.48188869981095195, 0.33214360009878874, 0.5726385000161827]","[0.5864595000166446, 0.6734251999296248, 0.5747322000097483, 0.3842927000951022, 0.5801566999871284, 0.3818384001497179, 0.5357609000056982, 0.5368351000361145, 0.5510409001726657, 0.7028717000503093, 0.7285275999456644, 0.4999983999878168, 0.5812804999295622, 0.7366752000525594, 0.9167927000671625, 0.5030302999075502, 0.8529912000522017, 0.5344527000561357, 0.5077382000163198, 0.4818950998596847, 0.3321519000455737, 0.5726457999553531]",666,food,0,1,BR,1,2023-06-30_13h30.32.287,crystals,2022.2.4,30.017058702048097,
bagel plain.jpg,stimuli/food/,stimuli/food/bagel plain.jpg,0,0,0,0,0,22,22,7,,,,,68.16801630007103,68.97406470007263,5.69875,0.7647274998016655,23,"[0.5864532000850886, 0.6734186999965459, 0.5747257999610156, 0.38428670004941523, 0.5801436000037938, 0.3818310999777168, 0.5357550999615341, 0.5368288999889046, 0.5510331999976188, 0.7028651000000536, 0.7285207000095397, 0.49999179993756115, 0.5812738998793066, 0.7366690000053495, 0.9167863000184298, 0.5030241999775171, 0.8529848998878151, 0.5344402999617159, 0.5077323999721557, 0.48188869981095195, 0.33214360009878874, 0.5726385000161827, 0.4492046001832932]","[0.5864595000166446, 0.6734251999296248, 0.5747322000097483, 0.3842927000951022, 0.5801566999871284, 0.3818384001497179, 0.5357609000056982, 0.5368351000361145, 0.5510409001726657, 0.7028717000503093, 0.7285275999456644, 0.4999983999878168, 0.5812804999295622, 0.7366752000525594, 0.9167927000671625, 0.5030302999075502, 0.8529912000522017, 0.5344527000561357, 0.5077382000163198, 0.4818950998596847, 0.3321519000455737, 0.5726457999553531, 0.44921039999462664]",666,food,0,1,BR,1,2023-06-30_13h30.32.287,crystals,2022.2.4,30.017058702048097,
Cheese nachos.jpg,stimuli/food/,stimuli/food/Cheese nachos.jpg,0,0,0,0,0,23,23,15,,,,,70.16775860008784,71.05141049996018,2.86,1.01555830007419,24,"[0.5864532000850886, 0.6734186999965459, 0.5747257999610156, 0.38428670004941523, 0.5801436000037938, 0.3818310999777168, 0.5357550999615341, 0.5368288999889046, 0.5510331999976188, 0.7028651000000536, 0.7285207000095397, 0.49999179993756115, 0.5812738998793066, 0.7366690000053495, 0.9167863000184298, 0.5030241999775171, 0.8529848998878151, 0.5344402999617159, 0.5077323999721557, 0.48188869981095195, 0.33214360009878874, 0.5726385000161827, 0.4492046001832932, 0.5832992000505328]","[0.5864595000166446, 0.6734251999296248, 0.5747322000097483, 0.3842927000951022, 0.5801566999871284, 0.3818384001497179, 0.5357609000056982, 0.5368351000361145, 0.5510409001726657, 0.7028717000503093, 0.7285275999456644, 0.4999983999878168, 0.5812804999295622, 0.7366752000525594, 0.9167927000671625, 0.5030302999075502, 0.8529912000522017, 0.5344527000561357, 0.5077382000163198, 0.4818950998596847, 0.3321519000455737, 0.5726457999553531, 0.44921039999462664, 0.5833052000962198]",666,food,0,1,BR,1,2023-06-30_13h30.32.287,crystals,2022.2.4,30.017058702048097,
sushi w_condiments.jpg,stimuli/food/,stimuli/food/sushi w_condiments.jpg,0,0,0,0,0,24,24,67,,,,,72.1950993000064,72.94535860000178,6.90625,0.7183435999322683,25,"[0.5864532000850886, 0.6734186999965459, 0.5747257999610156, 0.38428670004941523, 0.5801436000037938, 0.3818310999777168, 0.5357550999615341, 0.5368288999889046, 0.5510331999976188, 0.7028651000000536, 0.7285207000095397, 0.49999179993756115, 0.5812738998793066, 0.7366690000053495, 0.9167863000184298, 0.5030241999775171, 0.8529848998878151, 0.5344402999617159, 0.5077323999721557, 0.48188869981095195, 0.33214360009878874, 0.5726385000161827, 0.4492046001832932, 0.5832992000505328, 0.4943166999146342]","[0.5864595000166446, 0.6734251999296248, 0.5747322000097483, 0.3842927000951022, 0.5801566999871284, 0.3818384001497179, 0.5357609000056982, 0.5368351000361145, 0.5510409001726657, 0.7028717000503093, 0.7285275999456644, 0.4999983999878168, 0.5812804999295622, 0.7366752000525594, 0.9167927000671625, 0.5030302999075502, 0.8529912000522017, 0.5344527000561357, 0.5077382000163198, 0.4818950998596847, 0.3321519000455737, 0.5726457999553531, 0.44921039999462664, 0.5833052000962198, 0.49432280007749796]",666,food,0,1,BR,1,2023-06-30_13h30.32.287,crystals,2022.2.4,30.017058702048097,
yellow popcorn.jpg,stimuli/food/,stimuli/food/yellow popcorn.jpg,0,0,0,0,0,25,25,73,,,,,73.97348430007696,74.63472139998339,3.5687499999999996,0.6000946001149714,26,"[0.5864532000850886, 0.6734186999965459, 0.5747257999610156, 0.38428670004941523, 0.5801436000037938, 0.3818310999777168, 0.5357550999615341, 0.5368288999889046, 0.5510331999976188, 0.7028651000000536, 0.7285207000095397, 0.49999179993756115, 0.5812738998793066, 0.7366690000053495, 0.9167863000184298, 0.5030241999775171, 0.8529848998878151, 0.5344402999617159, 0.5077323999721557, 0.48188869981095195, 0.33214360009878874, 0.5726385000161827, 0.4492046001832932, 0.5832992000505328, 0.4943166999146342, 0.45526680001057684]","[0.5864595000166446, 0.6734251999296248, 0.5747322000097483, 0.3842927000951022, 0.5801566999871284, 0.3818384001497179, 0.5357609000056982, 0.5368351000361145, 0.5510409001726657, 0.7028717000503093, 0.7285275999456644, 0.4999983999878168, 0.5812804999295622, 0.7366752000525594, 0.9167927000671625, 0.5030302999075502, 0.8529912000522017, 0.5344527000561357, 0.5077382000163198, 0.4818950998596847, 0.3321519000455737, 0.5726457999553531, 0.44921039999462664, 0.5833052000962198, 0.49432280007749796, 0.4552736000623554]",666,food,0,1,BR,1,2023-06-30_13h30.32.287,crystals,2022.2.4,30.017058702048097,
french fries.jpg,stimuli/food/,stimuli/food/french fries.jpg,0,0,0,0,0,26,26,25,,,,,75.63493030006066,76.18419479997829,1.95625,0.532039700075984,27,"[0.5864532000850886, 0.6734186999965459, 0.5747257999610156, 0.38428670004941523, 0.5801436000037938, 0.3818310999777168, 0.5357550999615341, 0.5368288999889046, 0.5510331999976188, 0.7028651000000536, 0.7285207000095397, 0.49999179993756115, 0.5812738998793066, 0.7366690000053495, 0.9167863000184298, 0.5030241999775171, 0.8529848998878151, 0.5344402999617159, 0.5077323999721557, 0.48188869981095195, 0.33214360009878874, 0.5726385000161827, 0.4492046001832932, 0.5832992000505328, 0.4943166999146342, 0.45526680001057684, 1.1346752000972629]","[0.5864595000166446, 0.6734251999296248, 0.5747322000097483, 0.3842927000951022, 0.5801566999871284, 0.3818384001497179, 0.5357609000056982, 0.5368351000361145, 0.5510409001726657, 0.7028717000503093, 0.7285275999456644, 0.4999983999878168, 0.5812804999295622, 0.7366752000525594, 0.9167927000671625, 0.5030302999075502, 0.8529912000522017, 0.5344527000561357, 0.5077382000163198, 0.4818950998596847, 0.3321519000455737, 0.5726457999553531, 0.44921039999462664, 0.5833052000962198, 0.49432280007749796, 0.4552736000623554, 1.134681300027296]",666,food,0,1,BR,1,2023-06-30_13h30.32.287,crystals,2022.2.4,30.017058702048097,
corn cob.jpg,stimuli/food/,stimuli/food/corn cob.jpg,0,0,0,0,0,27,27,20,,,,,77.88471800019033,78.78500400017947,1.7837500000000002,0.8418870999012142,28,"[0.5864532000850886, 0.6734186999965459, 0.5747257999610156, 0.38428670004941523, 0.5801436000037938, 0.3818310999777168, 0.5357550999615341, 0.5368288999889046, 0.5510331999976188, 0.7028651000000536, 0.7285207000095397, 0.49999179993756115, 0.5812738998793066, 0.7366690000053495, 0.9167863000184298, 0.5030241999775171, 0.8529848998878151, 0.5344402999617159, 0.5077323999721557, 0.48188869981095195, 0.33214360009878874, 0.5726385000161827, 0.4492046001832932, 0.5832992000505328, 0.4943166999146342, 0.45526680001057684, 1.1346752000972629, 0.98633630014956]","[0.5864595000166446, 0.6734251999296248, 0.5747322000097483, 0.3842927000951022, 0.5801566999871284, 0.3818384001497179, 0.5357609000056982, 0.5368351000361145, 0.5510409001726657, 0.7028717000503093, 0.7285275999456644, 0.4999983999878168, 0.5812804999295622, 0.7366752000525594, 0.9167927000671625, 0.5030302999075502, 0.8529912000522017, 0.5344527000561357, 0.5077382000163198, 0.4818950998596847, 0.3321519000455737, 0.5726457999553531, 0.44921039999462664, 0.5833052000962198, 0.49432280007749796, 0.4552736000623554, 1.134681300027296, 0.9863443002104759]",666,food,0,1,BR,1,2023-06-30_13h30.32.287,crystals,2022.2.4,30.017058702048097,
Grapes.jpg,stimuli/food/,stimuli/food/Grapes.jpg,0,0,0,0,0,28,28,29,,,,,80.33499130001292,80.92949520004913,2.7474999999999996,0.5443661001045257,29,"[0.5864532000850886, 0.6734186999965459, 0.5747257999610156, 0.38428670004941523, 0.5801436000037938, 0.3818310999777168, 0.5357550999615341, 0.5368288999889046, 0.5510331999976188, 0.7028651000000536, 0.7285207000095397, 0.49999179993756115, 0.5812738998793066, 0.7366690000053495, 0.9167863000184298, 0.5030241999775171, 0.8529848998878151, 0.5344402999617159, 0.5077323999721557, 0.48188869981095195, 0.33214360009878874, 0.5726385000161827, 0.4492046001832932, 0.5832992000505328, 0.4943166999146342, 0.45526680001057684, 1.1346752000972629, 0.98633630014956, 0.5876917000859976]","[0.5864595000166446, 0.6734251999296248, 0.5747322000097483, 0.3842927000951022, 0.5801566999871284, 0.3818384001497179, 0.5357609000056982, 0.5368351000361145, 0.5510409001726657, 0.7028717000503093, 0.7285275999456644, 0.4999983999878168, 0.5812804999295622, 0.7366752000525594, 0.9167927000671625, 0.5030302999075502, 0.8529912000522017, 0.5344527000561357, 0.5077382000163198, 0.4818950998596847, 0.3321519000455737, 0.5726457999553531, 0.44921039999462664, 0.5833052000962198, 0.49432280007749796, 0.4552736000623554, 1.134681300027296, 0.9863443002104759, 0.5876989001408219]",666,food,0,1,BR,1,2023-06-30_13h30.32.287,crystals,2022.2.4,30.017058702048097,
cucumber slices.jpg,stimuli/food/,stimuli/food/cucumber slices.jpg,0,0,0,0,0,29,29,21,,,,,82.08352080010809,82.63494400004856,3.43,0.4900797000154853,30,"[0.5864532000850886, 0.6734186999965459, 0.5747257999610156, 0.38428670004941523, 0.5801436000037938, 0.3818310999777168, 0.5357550999615341, 0.5368288999889046, 0.5510331999976188, 0.7028651000000536, 0.7285207000095397, 0.49999179993756115, 0.5812738998793066, 0.7366690000053495, 0.9167863000184298, 0.5030241999775171, 0.8529848998878151, 0.5344402999617159, 0.5077323999721557, 0.48188869981095195, 0.33214360009878874, 0.5726385000161827, 0.4492046001832932, 0.5832992000505328, 0.4943166999146342, 0.45526680001057684, 1.1346752000972629, 0.98633630014956, 0.5876917000859976, 0.749858999857679]","[0.5864595000166446, 0.6734251999296248, 0.5747322000097483, 0.3842927000951022, 0.5801566999871284, 0.3818384001497179, 0.5357609000056982, 0.5368351000361145, 0.5510409001726657, 0.7028717000503093, 0.7285275999456644, 0.4999983999878168, 0.5812804999295622, 0.7366752000525594, 0.9167927000671625, 0.5030302999075502, 0.8529912000522017, 0.5344527000561357, 0.5077382000163198, 0.4818950998596847, 0.3321519000455737, 0.5726457999553531, 0.44921039999462664, 0.5833052000962198, 0.49432280007749796, 0.4552736000623554, 1.134681300027296, 0.9863443002104759, 0.5876989001408219, 0.749864500015974]",666,food,0,1,BR,1,2023-06-30_13h30.32.287,crystals,2022.2.4,30.017058702048097,
doughnuts.jpg,stimuli/food/,stimuli/food/doughnuts.jpg,0,0,0,0,0,30,30,23,,,,,83.96523730014451,84.81459400011227,9.497499999999999,0.8291239000391215,31,"[0.5864532000850886, 0.6734186999965459, 0.5747257999610156, 0.38428670004941523, 0.5801436000037938, 0.3818310999777168, 0.5357550999615341, 0.5368288999889046, 0.5510331999976188, 0.7028651000000536, 0.7285207000095397, 0.49999179993756115, 0.5812738998793066, 0.7366690000053495, 0.9167863000184298, 0.5030241999775171, 0.8529848998878151, 0.5344402999617159, 0.5077323999721557, 0.48188869981095195, 0.33214360009878874, 0.5726385000161827, 0.4492046001832932, 0.5832992000505328, 0.4943166999146342, 0.45526680001057684, 1.1346752000972629, 0.98633630014956, 0.5876917000859976, 0.749858999857679, 0.6371535998769104]","[0.5864595000166446, 0.6734251999296248, 0.5747322000097483, 0.3842927000951022, 0.5801566999871284, 0.3818384001497179, 0.5357609000056982, 0.5368351000361145, 0.5510409001726657, 0.7028717000503093, 0.7285275999456644, 0.4999983999878168, 0.5812804999295622, 0.7366752000525594, 0.9167927000671625, 0.5030302999075502, 0.8529912000522017, 0.5344527000561357, 0.5077382000163198, 0.4818950998596847, 0.3321519000455737, 0.5726457999553531, 0.44921039999462664, 0.5833052000962198, 0.49432280007749796, 0.4552736000623554, 1.134681300027296, 0.9863443002104759, 0.5876989001408219, 0.749864500015974, 0.6371601999271661]",666,food,0,1,BR,1,2023-06-30_13h30.32.287,crystals,2022.2.4,30.017058702048097,
soup with spoon.jpg,stimuli/food/,stimuli/food/soup with spoon.jpg,0,0,0,0,0,31,31,61,,,,,86.00154990004376,86.71853000018746,6.175,0.6493151001632214,32,"[0.5864532000850886, 0.6734186999965459, 0.5747257999610156, 0.38428670004941523, 0.5801436000037938, 0.3818310999777168, 0.5357550999615341, 0.5368288999889046, 0.5510331999976188, 0.7028651000000536, 0.7285207000095397, 0.49999179993756115, 0.5812738998793066, 0.7366690000053495, 0.9167863000184298, 0.5030241999775171, 0.8529848998878151, 0.5344402999617159, 0.5077323999721557, 0.48188869981095195, 0.33214360009878874, 0.5726385000161827, 0.4492046001832932, 0.5832992000505328, 0.4943166999146342, 0.45526680001057684, 1.1346752000972629, 0.98633630014956, 0.5876917000859976, 0.749858999857679, 0.6371535998769104, 0.5402130999136716]","[0.5864595000166446, 0.6734251999296248, 0.5747322000097483, 0.3842927000951022, 0.5801566999871284, 0.3818384001497179, 0.5357609000056982, 0.5368351000361145, 0.5510409001726657, 0.7028717000503093, 0.7285275999456644, 0.4999983999878168, 0.5812804999295622, 0.7366752000525594, 0.9167927000671625, 0.5030302999075502, 0.8529912000522017, 0.5344527000561357, 0.5077382000163198, 0.4818950998596847, 0.3321519000455737, 0.5726457999553531, 0.44921039999462664, 0.5833052000962198, 0.49432280007749796, 0.4552736000623554, 1.134681300027296, 0.9863443002104759, 0.5876989001408219, 0.749864500015974, 0.6371601999271661, 0.5402194999624044]",666,food,0,1,BR,1,2023-06-30_13h30.32.287,crystals,2022.2.4,30.017058702048097,
chicken nuggets2.jpg,stimuli/food/,stimuli/food/chicken nuggets2.jpg,0,0,0,0,0,32,32,18,,,,,87.78505560010672,88.49799790000543,4.13875,0.6815196999814361,33,"[0.5864532000850886, 0.6734186999965459, 0.5747257999610156, 0.38428670004941523, 0.5801436000037938, 0.3818310999777168, 0.5357550999615341, 0.5368288999889046, 0.5510331999976188, 0.7028651000000536, 0.7285207000095397, 0.49999179993756115, 0.5812738998793066, 0.7366690000053495, 0.9167863000184298, 0.5030241999775171, 0.8529848998878151, 0.5344402999617159, 0.5077323999721557, 0.48188869981095195, 0.33214360009878874, 0.5726385000161827, 0.4492046001832932, 0.5832992000505328, 0.4943166999146342, 0.45526680001057684, 1.1346752000972629, 0.98633630014956, 0.5876917000859976, 0.749858999857679, 0.6371535998769104, 0.5402130999136716, 0.6821552000474185]","[0.5864595000166446, 0.6734251999296248, 0.5747322000097483, 0.3842927000951022, 0.5801566999871284, 0.3818384001497179, 0.5357609000056982, 0.5368351000361145, 0.5510409001726657, 0.7028717000503093, 0.7285275999456644, 0.4999983999878168, 0.5812804999295622, 0.7366752000525594, 0.9167927000671625, 0.5030302999075502, 0.8529912000522017, 0.5344527000561357, 0.5077382000163198, 0.4818950998596847, 0.3321519000455737, 0.5726457999553531, 0.44921039999462664, 0.5833052000962198, 0.49432280007749796, 0.4552736000623554, 1.134681300027296, 0.9863443002104759, 0.5876989001408219, 0.749864500015974, 0.6371601999271661, 0.5402194999624044, 0.6821664001327008]",666,food,0,1,BR,1,2023-06-30_13h30.32.287,crystals,2022.2.4,30.017058702048097,
orange slices.jpg,stimuli/food/,stimuli/food/orange slices.jpg,0,0,0,0,0,33,33,44,,,,,89.72219010000117,90.54792860010639,1.9862499999999998,0.7657512000296265,34,"[0.5864532000850886, 0.6734186999965459, 0.5747257999610156, 0.38428670004941523, 0.5801436000037938, 0.3818310999777168, 0.5357550999615341, 0.5368288999889046, 0.5510331999976188, 0.7028651000000536, 0.7285207000095397, 0.49999179993756115, 0.5812738998793066, 0.7366690000053495, 0.9167863000184298, 0.5030241999775171, 0.8529848998878151, 0.5344402999617159, 0.5077323999721557, 0.48188869981095195, 0.33214360009878874, 0.5726385000161827, 0.4492046001832932, 0.5832992000505328, 0.4943166999146342, 0.45526680001057684, 1.1346752000972629, 0.98633630014956, 0.5876917000859976, 0.749858999857679, 0.6371535998769104, 0.5402130999136716, 0.6821552000474185, 0.621936900075525]","[0.5864595000166446, 0.6734251999296248, 0.5747322000097483, 0.3842927000951022, 0.5801566999871284, 0.3818384001497179, 0.5357609000056982, 0.5368351000361145, 0.5510409001726657, 0.7028717000503093, 0.7285275999456644, 0.4999983999878168, 0.5812804999295622, 0.7366752000525594, 0.9167927000671625, 0.5030302999075502, 0.8529912000522017, 0.5344527000561357, 0.5077382000163198, 0.4818950998596847, 0.3321519000455737, 0.5726457999553531, 0.44921039999462664, 0.5833052000962198, 0.49432280007749796, 0.4552736000623554, 1.134681300027296, 0.9863443002104759, 0.5876989001408219, 0.749864500015974, 0.6371601999271661, 0.5402194999624044, 0.6821664001327008, 0.6219442000146955]",666,food,0,1,BR,1,2023-06-30_13h30.32.287,crystals,2022.2.4,30.017058702048097,
cupcakes am.jpg,stimuli/food/,stimuli/food/cupcakes am.jpg,0,0,0,0,0,34,34,22,,,,,91.75180399999954,92.6851262000855,9.26125,0.8828883999958634,35,"[0.5864532000850886, 0.6734186999965459, 0.5747257999610156, 0.38428670004941523, 0.5801436000037938, 0.3818310999777168, 0.5357550999615341, 0.5368288999889046, 0.5510331999976188, 0.7028651000000536, 0.7285207000095397, 0.49999179993756115, 0.5812738998793066, 0.7366690000053495, 0.9167863000184298, 0.5030241999775171, 0.8529848998878151, 0.5344402999617159, 0.5077323999721557, 0.48188869981095195, 0.33214360009878874, 0.5726385000161827, 0.4492046001832932, 0.5832992000505328, 0.4943166999146342, 0.45526680001057684, 1.1346752000972629, 0.98633630014956, 0.5876917000859976, 0.749858999857679, 0.6371535998769104, 0.5402130999136716, 0.6821552000474185, 0.621936900075525, 0.6017628000117838]","[0.5864595000166446, 0.6734251999296248, 0.5747322000097483, 0.3842927000951022, 0.5801566999871284, 0.3818384001497179, 0.5357609000056982, 0.5368351000361145, 0.5510409001726657, 0.7028717000503093, 0.7285275999456644, 0.4999983999878168, 0.5812804999295622, 0.7366752000525594, 0.9167927000671625, 0.5030302999075502, 0.8529912000522017, 0.5344527000561357, 0.5077382000163198, 0.4818950998596847, 0.3321519000455737, 0.5726457999553531, 0.44921039999462664, 0.5833052000962198, 0.49432280007749796, 0.4552736000623554, 1.134681300027296, 0.9863443002104759, 0.5876989001408219, 0.749864500015974, 0.6371601999271661, 0.5402194999624044, 0.6821664001327008, 0.6219442000146955, 0.6017696000635624]",666,food,0,1,BR,1,2023-06-30_13h30.32.287,crystals,2022.2.4,30.017058702048097,
yogurt pretzels.jpg,stimuli/food/,stimuli/food/yogurt pretzels.jpg,0,0,0,0,0,35,35,75,,,,,93.85185690014623,94.4250879001338,2.4924999999999997,0.5337203000672162,36,"[0.5864532000850886, 0.6734186999965459, 0.5747257999610156, 0.38428670004941523, 0.5801436000037938, 0.3818310999777168, 0.5357550999615341, 0.5368288999889046, 0.5510331999976188, 0.7028651000000536, 0.7285207000095397, 0.49999179993756115, 0.5812738998793066, 0.7366690000053495, 0.9167863000184298, 0.5030241999775171, 0.8529848998878151, 0.5344402999617159, 0.5077323999721557, 0.48188869981095195, 0.33214360009878874, 0.5726385000161827, 0.4492046001832932, 0.5832992000505328, 0.4943166999146342, 0.45526680001057684, 1.1346752000972629, 0.98633630014956, 0.5876917000859976, 0.749858999857679, 0.6371535998769104, 0.5402130999136716, 0.6821552000474185, 0.621936900075525, 0.6017628000117838, 0.611229500034824]","[0.5864595000166446, 0.6734251999296248, 0.5747322000097483, 0.3842927000951022, 0.5801566999871284, 0.3818384001497179, 0.5357609000056982, 0.5368351000361145, 0.5510409001726657, 0.7028717000503093, 0.7285275999456644, 0.4999983999878168, 0.5812804999295622, 0.7366752000525594, 0.9167927000671625, 0.5030302999075502, 0.8529912000522017, 0.5344527000561357, 0.5077382000163198, 0.4818950998596847, 0.3321519000455737, 0.5726457999553531, 0.44921039999462664, 0.5833052000962198, 0.49432280007749796, 0.4552736000623554, 1.134681300027296, 0.9863443002104759, 0.5876989001408219, 0.749864500015974, 0.6371601999271661, 0.5402194999624044, 0.6821664001327008, 0.6219442000146955, 0.6017696000635624, 0.6112367000896484]",666,food,0,1,BR,1,2023-06-30_13h30.32.287,crystals,2022.2.4,30.017058702048097,
avacado.jpg,stimuli/food/,stimuli/food/avacado.jpg,0,0,0,0,0,36,36,4,,,,,95.57869090000167,96.4352574001532,8.162500000000001,0.8006946998648345,37,"[0.5864532000850886, 0.6734186999965459, 0.5747257999610156, 0.38428670004941523, 0.5801436000037938, 0.3818310999777168, 0.5357550999615341, 0.5368288999889046, 0.5510331999976188, 0.7028651000000536, 0.7285207000095397, 0.49999179993756115, 0.5812738998793066, 0.7366690000053495, 0.9167863000184298, 0.5030241999775171, 0.8529848998878151, 0.5344402999617159, 0.5077323999721557, 0.48188869981095195, 0.33214360009878874, 0.5726385000161827, 0.4492046001832932, 0.5832992000505328, 0.4943166999146342, 0.45526680001057684, 1.1346752000972629, 0.98633630014956, 0.5876917000859976, 0.749858999857679, 0.6371535998769104, 0.5402130999136716, 0.6821552000474185, 0.621936900075525, 0.6017628000117838, 0.611229500034824, 0.5847742999903858]","[0.5864595000166446, 0.6734251999296248, 0.5747322000097483, 0.3842927000951022, 0.5801566999871284, 0.3818384001497179, 0.5357609000056982, 0.5368351000361145, 0.5510409001726657, 0.7028717000503093, 0.7285275999456644, 0.4999983999878168, 0.5812804999295622, 0.7366752000525594, 0.9167927000671625, 0.5030302999075502, 0.8529912000522017, 0.5344527000561357, 0.5077382000163198, 0.4818950998596847, 0.3321519000455737, 0.5726457999553531, 0.44921039999462664, 0.5833052000962198, 0.49432280007749796, 0.4552736000623554, 1.134681300027296, 0.9863443002104759, 0.5876989001408219, 0.749864500015974, 0.6371601999271661, 0.5402194999624044, 0.6821664001327008, 0.6219442000146955, 0.6017696000635624, 0.6112367000896484, 0.5847813999280334]",666,food,0,1,BR,1,2023-06-30_13h30.32.287,crystals,2022.2.4,30.017058702048097,
fried eggs.jpg,stimuli/food/,stimuli/food/fried eggs.jpg,0,0,0,0,0,37,37,26,,,,,97.568257200066,98.73425610014237,5.6425,1.6813658999744803,38,"[0.5864532000850886, 0.6734186999965459, 0.5747257999610156, 0.38428670004941523, 0.5801436000037938, 0.3818310999777168, 0.5357550999615341, 0.5368288999889046, 0.5510331999976188, 0.7028651000000536, 0.7285207000095397, 0.49999179993756115, 0.5812738998793066, 0.7366690000053495, 0.9167863000184298, 0.5030241999775171, 0.8529848998878151, 0.5344402999617159, 0.5077323999721557, 0.48188869981095195, 0.33214360009878874, 0.5726385000161827, 0.4492046001832932, 0.5832992000505328, 0.4943166999146342, 0.45526680001057684, 1.1346752000972629, 0.98633630014956, 0.5876917000859976, 0.749858999857679, 0.6371535998769104, 0.5402130999136716, 0.6821552000474185, 0.621936900075525, 0.6017628000117838, 0.611229500034824, 0.5847742999903858, 1.2682136001531035]","[0.5864595000166446, 0.6734251999296248, 0.5747322000097483, 0.3842927000951022, 0.5801566999871284, 0.3818384001497179, 0.5357609000056982, 0.5368351000361145, 0.5510409001726657, 0.7028717000503093, 0.7285275999456644, 0.4999983999878168, 0.5812804999295622, 0.7366752000525594, 0.9167927000671625, 0.5030302999075502, 0.8529912000522017, 0.5344527000561357, 0.5077382000163198, 0.4818950998596847, 0.3321519000455737, 0.5726457999553531, 0.44921039999462664, 0.5833052000962198, 0.49432280007749796, 0.4552736000623554, 1.134681300027296, 0.9863443002104759, 0.5876989001408219, 0.749864500015974, 0.6371601999271661, 0.5402194999624044, 0.6821664001327008, 0.6219442000146955, 0.6017696000635624, 0.6112367000896484, 0.5847813999280334, 1.268224700121209]",666,food,0,1,BR,1,2023-06-30_13h30.32.287,crystals,2022.2.4,30.017058702048097,
trail mix.jpg,stimuli/food/,stimuli/food/trail mix.jpg,0,0,0,0,0,38,38,69,,,,,100.5852638001088,101.63527310010977,1.3487500000000001,0.9893214001785964,39,"[0.5864532000850886, 0.6734186999965459, 0.5747257999610156, 0.38428670004941523, 0.5801436000037938, 0.3818310999777168, 0.5357550999615341, 0.5368288999889046, 0.5510331999976188, 0.7028651000000536, 0.7285207000095397, 0.49999179993756115, 0.5812738998793066, 0.7366690000053495, 0.9167863000184298, 0.5030241999775171, 0.8529848998878151, 0.5344402999617159, 0.5077323999721557, 0.48188869981095195, 0.33214360009878874, 0.5726385000161827, 0.4492046001832932, 0.5832992000505328, 0.4943166999146342, 0.45526680001057684, 1.1346752000972629, 0.98633630014956, 0.5876917000859976, 0.749858999857679, 0.6371535998769104, 0.5402130999136716, 0.6821552000474185, 0.621936900075525, 0.6017628000117838, 0.611229500034824, 0.5847742999903858, 1.2682136001531035, 0.683607499813661]","[0.5864595000166446, 0.6734251999296248, 0.5747322000097483, 0.3842927000951022, 0.5801566999871284, 0.3818384001497179, 0.5357609000056982, 0.5368351000361145, 0.5510409001726657, 0.7028717000503093, 0.7285275999456644, 0.4999983999878168, 0.5812804999295622, 0.7366752000525594, 0.9167927000671625, 0.5030302999075502, 0.8529912000522017, 0.5344527000561357, 0.5077382000163198, 0.4818950998596847, 0.3321519000455737, 0.5726457999553531, 0.44921039999462664, 0.5833052000962198, 0.49432280007749796, 0.4552736000623554, 1.134681300027296, 0.9863443002104759, 0.5876989001408219, 0.749864500015974, 0.6371601999271661, 0.5402194999624044, 0.6821664001327008, 0.6219442000146955, 0.6017696000635624, 0.6112367000896484, 0.5847813999280334, 1.268224700121209, 0.6836133999750018]",666,food,0,1,BR,1,2023-06-30_13h30.32.287,crystals,2022.2.4,30.017058702048097,
rigatoni.jpg,stimuli/food/,stimuli/food/rigatoni.jpg,0,0,0,0,0,39,39,55,,,,,102.86873039999045,104.04548140009865,4.48,1.1122874999418855,40,"[0.5864532000850886, 0.6734186999965459, 0.5747257999610156, 0.38428670004941523, 0.5801436000037938, 0.3818310999777168, 0.5357550999615341, 0.5368288999889046, 0.5510331999976188, 0.7028651000000536, 0.7285207000095397, 0.49999179993756115, 0.5812738998793066, 0.7366690000053495, 0.9167863000184298, 0.5030241999775171, 0.8529848998878151, 0.5344402999617159, 0.5077323999721557, 0.48188869981095195, 0.33214360009878874, 0.5726385000161827, 0.4492046001832932, 0.5832992000505328, 0.4943166999146342, 0.45526680001057684, 1.1346752000972629, 0.98633630014956, 0.5876917000859976, 0.749858999857679, 0.6371535998769104, 0.5402130999136716, 0.6821552000474185, 0.621936900075525, 0.6017628000117838, 0.611229500034824, 0.5847742999903858, 1.2682136001531035, 0.683607499813661, 0.5388088999316096]","[0.5864595000166446, 0.6734251999296248, 0.5747322000097483, 0.3842927000951022, 0.5801566999871284, 0.3818384001497179, 0.5357609000056982, 0.5368351000361145, 0.5510409001726657, 0.7028717000503093, 0.7285275999456644, 0.4999983999878168, 0.5812804999295622, 0.7366752000525594, 0.9167927000671625, 0.5030302999075502, 0.8529912000522017, 0.5344527000561357, 0.5077382000163198, 0.4818950998596847, 0.3321519000455737, 0.5726457999553531, 0.44921039999462664, 0.5833052000962198, 0.49432280007749796, 0.4552736000623554, 1.134681300027296, 0.9863443002104759, 0.5876989001408219, 0.749864500015974, 0.6371601999271661, 0.5402194999624044, 0.6821664001327008, 0.6219442000146955, 0.6017696000635624, 0.6112367000896484, 0.5847813999280334, 1.268224700121209, 0.6836133999750018, 0.5388150999788195]",666,food,0,1,BR,1,2023-06-30_13h30.32.287,crystals,2022.2.4,30.017058702048097,
green beans.jpg,stimuli/food/,stimuli/food/green beans.jpg,0,0,0,0,0,40,40,30,,,,,105.1518796000164,105.9020323001314,7.165000000000001,0.6988965000491589,41,"[0.5864532000850886, 0.6734186999965459, 0.5747257999610156, 0.38428670004941523, 0.5801436000037938, 0.3818310999777168, 0.5357550999615341, 0.5368288999889046, 0.5510331999976188, 0.7028651000000536, 0.7285207000095397, 0.49999179993756115, 0.5812738998793066, 0.7366690000053495, 0.9167863000184298, 0.5030241999775171, 0.8529848998878151, 0.5344402999617159, 0.5077323999721557, 0.48188869981095195, 0.33214360009878874, 0.5726385000161827, 0.4492046001832932, 0.5832992000505328, 0.4943166999146342, 0.45526680001057684, 1.1346752000972629, 0.98633630014956, 0.5876917000859976, 0.749858999857679, 0.6371535998769104, 0.5402130999136716, 0.6821552000474185, 0.621936900075525, 0.6017628000117838, 0.611229500034824, 0.5847742999903858, 1.2682136001531035, 0.683607499813661, 0.5388088999316096, 0.5057170998770744]","[0.5864595000166446, 0.6734251999296248, 0.5747322000097483, 0.3842927000951022, 0.5801566999871284, 0.3818384001497179, 0.5357609000056982, 0.5368351000361145, 0.5510409001726657, 0.7028717000503093, 0.7285275999456644, 0.4999983999878168, 0.5812804999295622, 0.7366752000525594, 0.9167927000671625, 0.5030302999075502, 0.8529912000522017, 0.5344527000561357, 0.5077382000163198, 0.4818950998596847, 0.3321519000455737, 0.5726457999553531, 0.44921039999462664, 0.5833052000962198, 0.49432280007749796, 0.4552736000623554, 1.134681300027296, 0.9863443002104759, 0.5876989001408219, 0.749864500015974, 0.6371601999271661, 0.5402194999624044, 0.6821664001327008, 0.6219442000146955, 0.6017696000635624, 0.6112367000896484, 0.5847813999280334, 1.268224700121209, 0.6836133999750018, 0.5388150999788195, 0.5057230999227613]",666,food,0,1,BR,1,2023-06-30_13h30.32.287,crystals,2022.2.4,30.017058702048097,
peaches.jpg,stimuli/food/,stimuli/food/peaches.jpg,0,0,0,0,0,41,41,46,,,,,106.94981810008176,108.2354137999937,9.2725,1.2319059998262674,42,"[0.5864532000850886, 0.6734186999965459, 0.5747257999610156, 0.38428670004941523, 0.5801436000037938, 0.3818310999777168, 0.5357550999615341, 0.5368288999889046, 0.5510331999976188, 0.7028651000000536, 0.7285207000095397, 0.49999179993756115, 0.5812738998793066, 0.7366690000053495, 0.9167863000184298, 0.5030241999775171, 0.8529848998878151, 0.5344402999617159, 0.5077323999721557, 0.48188869981095195, 0.33214360009878874, 0.5726385000161827, 0.4492046001832932, 0.5832992000505328, 0.4943166999146342, 0.45526680001057684, 1.1346752000972629, 0.98633630014956, 0.5876917000859976, 0.749858999857679, 0.6371535998769104, 0.5402130999136716, 0.6821552000474185, 0.621936900075525, 0.6017628000117838, 0.611229500034824, 0.5847742999903858, 1.2682136001531035, 0.683607499813661, 0.5388088999316096, 0.5057170998770744, 0.9005298998672515]","[0.5864595000166446, 0.6734251999296248, 0.5747322000097483, 0.3842927000951022, 0.5801566999871284, 0.3818384001497179, 0.5357609000056982, 0.5368351000361145, 0.5510409001726657, 0.7028717000503093, 0.7285275999456644, 0.4999983999878168, 0.5812804999295622, 0.7366752000525594, 0.9167927000671625, 0.5030302999075502, 0.8529912000522017, 0.5344527000561357, 0.5077382000163198, 0.4818950998596847, 0.3321519000455737, 0.5726457999553531, 0.44921039999462664, 0.5833052000962198, 0.49432280007749796, 0.4552736000623554, 1.134681300027296, 0.9863443002104759, 0.5876989001408219, 0.749864500015974, 0.6371601999271661, 0.5402194999624044, 0.6821664001327008, 0.6219442000146955, 0.6017696000635624, 0.6112367000896484, 0.5847813999280334, 1.268224700121209, 0.6836133999750018, 0.5388150999788195, 0.5057230999227613, 0.9005360999144614]",666,food,0,1,BR,1,2023-06-30_13h30.32.287,crystals,2022.2.4,30.017058702048097,
cookies.jpg,stimuli/food/,stimuli/food/cookies.jpg,0,0,0,0,0,42,42,19,,,,,109.66874510003254,110.33551250002347,5.61625,0.6112218999769539,43,"[0.5864532000850886, 0.6734186999965459, 0.5747257999610156, 0.38428670004941523, 0.5801436000037938, 0.3818310999777168, 0.5357550999615341, 0.5368288999889046, 0.5510331999976188, 0.7028651000000536, 0.7285207000095397, 0.49999179993756115, 0.5812738998793066, 0.7366690000053495, 0.9167863000184298, 0.5030241999775171, 0.8529848998878151, 0.5344402999617159, 0.5077323999721557, 0.48188869981095195, 0.33214360009878874, 0.5726385000161827, 0.4492046001832932, 0.5832992000505328, 0.4943166999146342, 0.45526680001057684, 1.1346752000972629, 0.98633630014956, 0.5876917000859976, 0.749858999857679, 0.6371535998769104, 0.5402130999136716, 0.6821552000474185, 0.621936900075525, 0.6017628000117838, 0.611229500034824, 0.5847742999903858, 1.2682136001531035, 0.683607499813661, 0.5388088999316096, 0.5057170998770744, 0.9005298998672515, 0.6669067998882383]","[0.5864595000166446, 0.6734251999296248, 0.5747322000097483, 0.3842927000951022, 0.5801566999871284, 0.3818384001497179, 0.5357609000056982, 0.5368351000361145, 0.5510409001726657, 0.7028717000503093, 0.7285275999456644, 0.4999983999878168, 0.5812804999295622, 0.7366752000525594, 0.9167927000671625, 0.5030302999075502, 0.8529912000522017, 0.5344527000561357, 0.5077382000163198, 0.4818950998596847, 0.3321519000455737, 0.5726457999553531, 0.44921039999462664, 0.5833052000962198, 0.49432280007749796, 0.4552736000623554, 1.134681300027296, 0.9863443002104759, 0.5876989001408219, 0.749864500015974, 0.6371601999271661, 0.5402194999624044, 0.6821664001327008, 0.6219442000146955, 0.6017696000635624, 0.6112367000896484, 0.5847813999280334, 1.268224700121209, 0.6836133999750018, 0.5388150999788195, 0.5057230999227613, 0.9005360999144614, 0.6669126998167485]",666,food,0,1,BR,1,2023-06-30_13h30.32.287,crystals,2022.2.4,30.017058702048097,
burger.jpg,stimuli/food/,stimuli/food/burger.jpg,0,0,0,0,0,43,43,13,,,,,111.53778230003081,112.51875720010139,3.19375,0.9517234000377357,44,"[0.5864532000850886, 0.6734186999965459, 0.5747257999610156, 0.38428670004941523, 0.5801436000037938, 0.3818310999777168, 0.5357550999615341, 0.5368288999889046, 0.5510331999976188, 0.7028651000000536, 0.7285207000095397, 0.49999179993756115, 0.5812738998793066, 0.7366690000053495, 0.9167863000184298, 0.5030241999775171, 0.8529848998878151, 0.5344402999617159, 0.5077323999721557, 0.48188869981095195, 0.33214360009878874, 0.5726385000161827, 0.4492046001832932, 0.5832992000505328, 0.4943166999146342, 0.45526680001057684, 1.1346752000972629, 0.98633630014956, 0.5876917000859976, 0.749858999857679, 0.6371535998769104, 0.5402130999136716, 0.6821552000474185, 0.621936900075525, 0.6017628000117838, 0.611229500034824, 0.5847742999903858, 1.2682136001531035, 0.683607499813661, 0.5388088999316096, 0.5057170998770744, 0.9005298998672515, 0.6669067998882383, 0.6677566000726074]","[0.5864595000166446, 0.6734251999296248, 0.5747322000097483, 0.3842927000951022, 0.5801566999871284, 0.3818384001497179, 0.5357609000056982, 0.5368351000361145, 0.5510409001726657, 0.7028717000503093, 0.7285275999456644, 0.4999983999878168, 0.5812804999295622, 0.7366752000525594, 0.9167927000671625, 0.5030302999075502, 0.8529912000522017, 0.5344527000561357, 0.5077382000163198, 0.4818950998596847, 0.3321519000455737, 0.5726457999553531, 0.44921039999462664, 0.5833052000962198, 0.49432280007749796, 0.4552736000623554, 1.134681300027296, 0.9863443002104759, 0.5876989001408219, 0.749864500015974, 0.6371601999271661, 0.5402194999624044, 0.6821664001327008, 0.6219442000146955, 0.6017696000635624, 0.6112367000896484, 0.5847813999280334, 1.268224700121209, 0.6836133999750018, 0.5388150999788195, 0.5057230999227613, 0.9005360999144614, 0.6669126998167485, 0.6677625000011176]",666,food,0,1,BR,1,2023-06-30_13h30.32.287,crystals,2022.2.4,30.017058702048097,
celery and carrot sticks.jpg,stimuli/food/,stimuli/food/celery and carrot sticks.jpg,0,0,0,0,0,44,44,14,,,,,113.73548760008998,114.96901700017042,9.62875,1.1903617999050766,45,"[0.5864532000850886, 0.6734186999965459, 0.5747257999610156, 0.38428670004941523, 0.5801436000037938, 0.3818310999777168, 0.5357550999615341, 0.5368288999889046, 0.5510331999976188, 0.7028651000000536, 0.7285207000095397, 0.49999179993756115, 0.5812738998793066, 0.7366690000053495, 0.9167863000184298, 0.5030241999775171, 0.8529848998878151, 0.5344402999617159, 0.5077323999721557, 0.48188869981095195, 0.33214360009878874, 0.5726385000161827, 0.4492046001832932, 0.5832992000505328, 0.4943166999146342, 0.45526680001057684, 1.1346752000972629, 0.98633630014956, 0.5876917000859976, 0.749858999857679, 0.6371535998769104, 0.5402130999136716, 0.6821552000474185, 0.621936900075525, 0.6017628000117838, 0.611229500034824, 0.5847742999903858, 1.2682136001531035, 0.683607499813661, 0.5388088999316096, 0.5057170998770744, 0.9005298998672515, 0.6669067998882383, 0.6677566000726074, 0.8004121000412852]","[0.5864595000166446, 0.6734251999296248, 0.5747322000097483, 0.3842927000951022, 0.5801566999871284, 0.3818384001497179, 0.5357609000056982, 0.5368351000361145, 0.5510409001726657, 0.7028717000503093, 0.7285275999456644, 0.4999983999878168, 0.5812804999295622, 0.7366752000525594, 0.9167927000671625, 0.5030302999075502, 0.8529912000522017, 0.5344527000561357, 0.5077382000163198, 0.4818950998596847, 0.3321519000455737, 0.5726457999553531, 0.44921039999462664, 0.5833052000962198, 0.49432280007749796, 0.4552736000623554, 1.134681300027296, 0.9863443002104759, 0.5876989001408219, 0.749864500015974, 0.6371601999271661, 0.5402194999624044, 0.6821664001327008, 0.6219442000146955, 0.6017696000635624, 0.6112367000896484, 0.5847813999280334, 1.268224700121209, 0.6836133999750018, 0.5388150999788195, 0.5057230999227613, 0.9005360999144614, 0.6669126998167485, 0.6677625000011176, 0.8004179000854492]",666,food,0,1,BR,1,2023-06-30_13h30.32.287,crystals,2022.2.4,30.017058702048097,
eggs.jpg,stimuli/food/,stimuli/food/eggs.jpg,0,0,0,0,0,45,45,24,,,,,116.3188225000631,117.05971339996904,2.365,0.7173545002005994,46,"[0.5864532000850886, 0.6734186999965459, 0.5747257999610156, 0.38428670004941523, 0.5801436000037938, 0.3818310999777168, 0.5357550999615341, 0.5368288999889046, 0.5510331999976188, 0.7028651000000536, 0.7285207000095397, 0.49999179993756115, 0.5812738998793066, 0.7366690000053495, 0.9167863000184298, 0.5030241999775171, 0.8529848998878151, 0.5344402999617159, 0.5077323999721557, 0.48188869981095195, 0.33214360009878874, 0.5726385000161827, 0.4492046001832932, 0.5832992000505328, 0.4943166999146342, 0.45526680001057684, 1.1346752000972629, 0.98633630014956, 0.5876917000859976, 0.749858999857679, 0.6371535998769104, 0.5402130999136716, 0.6821552000474185, 0.621936900075525, 0.6017628000117838, 0.611229500034824, 0.5847742999903858, 1.2682136001531035, 0.683607499813661, 0.5388088999316096, 0.5057170998770744, 0.9005298998672515, 0.6669067998882383, 0.6677566000726074, 0.8004121000412852, 0.5496334999334067]","[0.5864595000166446, 0.6734251999296248, 0.5747322000097483, 0.3842927000951022, 0.5801566999871284, 0.3818384001497179, 0.5357609000056982, 0.5368351000361145, 0.5510409001726657, 0.7028717000503093, 0.7285275999456644, 0.4999983999878168, 0.5812804999295622, 0.7366752000525594, 0.9167927000671625, 0.5030302999075502, 0.8529912000522017, 0.5344527000561357, 0.5077382000163198, 0.4818950998596847, 0.3321519000455737, 0.5726457999553531, 0.44921039999462664, 0.5833052000962198, 0.49432280007749796, 0.4552736000623554, 1.134681300027296, 0.9863443002104759, 0.5876989001408219, 0.749864500015974, 0.6371601999271661, 0.5402194999624044, 0.6821664001327008, 0.6219442000146955, 0.6017696000635624, 0.6112367000896484, 0.5847813999280334, 1.268224700121209, 0.6836133999750018, 0.5388150999788195, 0.5057230999227613, 0.9005360999144614, 0.6669126998167485, 0.6677625000011176, 0.8004179000854492, 0.5496397998649627]",666,food,0,1,BR,1,2023-06-30_13h30.32.287,crystals,2022.2.4,30.017058702048097,
mac & cheese.jpg,stimuli/food/,stimuli/food/mac & cheese.jpg,0,0,0,0,0,46,46,39,,,,,118.16900980006903,119.16624270007014,5.45875,1.0202156000304967,47,"[0.5864532000850886, 0.6734186999965459, 0.5747257999610156, 0.38428670004941523, 0.5801436000037938, 0.3818310999777168, 0.5357550999615341, 0.5368288999889046, 0.5510331999976188, 0.7028651000000536, 0.7285207000095397, 0.49999179993756115, 0.5812738998793066, 0.7366690000053495, 0.9167863000184298, 0.5030241999775171, 0.8529848998878151, 0.5344402999617159, 0.5077323999721557, 0.48188869981095195, 0.33214360009878874, 0.5726385000161827, 0.4492046001832932, 0.5832992000505328, 0.4943166999146342, 0.45526680001057684, 1.1346752000972629, 0.98633630014956, 0.5876917000859976, 0.749858999857679, 0.6371535998769104, 0.5402130999136716, 0.6821552000474185, 0.621936900075525, 0.6017628000117838, 0.611229500034824, 0.5847742999903858, 1.2682136001531035, 0.683607499813661, 0.5388088999316096, 0.5057170998770744, 0.9005298998672515, 0.6669067998882383, 0.6677566000726074, 0.8004121000412852, 0.5496334999334067, 0.7376293998677284]","[0.5864595000166446, 0.6734251999296248, 0.5747322000097483, 0.3842927000951022, 0.5801566999871284, 0.3818384001497179, 0.5357609000056982, 0.5368351000361145, 0.5510409001726657, 0.7028717000503093, 0.7285275999456644, 0.4999983999878168, 0.5812804999295622, 0.7366752000525594, 0.9167927000671625, 0.5030302999075502, 0.8529912000522017, 0.5344527000561357, 0.5077382000163198, 0.4818950998596847, 0.3321519000455737, 0.5726457999553531, 0.44921039999462664, 0.5833052000962198, 0.49432280007749796, 0.4552736000623554, 1.134681300027296, 0.9863443002104759, 0.5876989001408219, 0.749864500015974, 0.6371601999271661, 0.5402194999624044, 0.6821664001327008, 0.6219442000146955, 0.6017696000635624, 0.6112367000896484, 0.5847813999280334, 1.268224700121209, 0.6836133999750018, 0.5388150999788195, 0.5057230999227613, 0.9005360999144614, 0.6669126998167485, 0.6677625000011176, 0.8004179000854492, 0.5496397998649627, 0.7376363000366837]",666,food,0,1,BR,1,2023-06-30_13h30.32.287,crystals,2022.2.4,30.017058702048097,
froot loops w milk.jpg,stimuli/food/,stimuli/food/froot loops w milk.jpg,0,0,0,0,0,47,47,27,,,,,120.48568890010938,121.3683162999805,7.79875,0.8186474000103772,48,"[0.5864532000850886, 0.6734186999965459, 0.5747257999610156, 0.38428670004941523, 0.5801436000037938, 0.3818310999777168, 0.5357550999615341, 0.5368288999889046, 0.5510331999976188, 0.7028651000000536, 0.7285207000095397, 0.49999179993756115, 0.5812738998793066, 0.7366690000053495, 0.9167863000184298, 0.5030241999775171, 0.8529848998878151, 0.5344402999617159, 0.5077323999721557, 0.48188869981095195, 0.33214360009878874, 0.5726385000161827, 0.4492046001832932, 0.5832992000505328, 0.4943166999146342, 0.45526680001057684, 1.1346752000972629, 0.98633630014956, 0.5876917000859976, 0.749858999857679, 0.6371535998769104, 0.5402130999136716, 0.6821552000474185, 0.621936900075525, 0.6017628000117838, 0.611229500034824, 0.5847742999903858, 1.2682136001531035, 0.683607499813661, 0.5388088999316096, 0.5057170998770744, 0.9005298998672515, 0.6669067998882383, 0.6677566000726074, 0.8004121000412852, 0.5496334999334067, 0.7376293998677284, 0.5845525998156518]","[0.5864595000166446, 0.6734251999296248, 0.5747322000097483, 0.3842927000951022, 0.5801566999871284, 0.3818384001497179, 0.5357609000056982, 0.5368351000361145, 0.5510409001726657, 0.7028717000503093, 0.7285275999456644, 0.4999983999878168, 0.5812804999295622, 0.7366752000525594, 0.9167927000671625, 0.5030302999075502, 0.8529912000522017, 0.5344527000561357, 0.5077382000163198, 0.4818950998596847, 0.3321519000455737, 0.5726457999553531, 0.44921039999462664, 0.5833052000962198, 0.49432280007749796, 0.4552736000623554, 1.134681300027296, 0.9863443002104759, 0.5876989001408219, 0.749864500015974, 0.6371601999271661, 0.5402194999624044, 0.6821664001327008, 0.6219442000146955, 0.6017696000635624, 0.6112367000896484, 0.5847813999280334, 1.268224700121209, 0.6836133999750018, 0.5388150999788195, 0.5057230999227613, 0.9005360999144614, 0.6669126998167485, 0.6677625000011176, 0.8004179000854492, 0.5496397998649627, 0.7376363000366837, 0.5845586999785155]",666,food,0,1,BR,1,2023-06-30_13h30.32.287,crystals,2022.2.4,30.017058702048097,
rice cakes.jpg,stimuli/food/,stimuli/food/rice cakes.jpg,0,0,0,0,0,48,48,53,,,,,122.51908640004694,123.5356829999946,1.7200000000000002,0.9656021001283079,49,"[0.5864532000850886, 0.6734186999965459, 0.5747257999610156, 0.38428670004941523, 0.5801436000037938, 0.3818310999777168, 0.5357550999615341, 0.5368288999889046, 0.5510331999976188, 0.7028651000000536, 0.7285207000095397, 0.49999179993756115, 0.5812738998793066, 0.7366690000053495, 0.9167863000184298, 0.5030241999775171, 0.8529848998878151, 0.5344402999617159, 0.5077323999721557, 0.48188869981095195, 0.33214360009878874, 0.5726385000161827, 0.4492046001832932, 0.5832992000505328, 0.4943166999146342, 0.45526680001057684, 1.1346752000972629, 0.98633630014956, 0.5876917000859976, 0.749858999857679, 0.6371535998769104, 0.5402130999136716, 0.6821552000474185, 0.621936900075525, 0.6017628000117838, 0.611229500034824, 0.5847742999903858, 1.2682136001531035, 0.683607499813661, 0.5388088999316096, 0.5057170998770744, 0.9005298998672515, 0.6669067998882383, 0.6677566000726074, 0.8004121000412852, 0.5496334999334067, 0.7376293998677284, 0.5845525998156518, 0.6667532999999821]","[0.5864595000166446, 0.6734251999296248, 0.5747322000097483, 0.3842927000951022, 0.5801566999871284, 0.3818384001497179, 0.5357609000056982, 0.5368351000361145, 0.5510409001726657, 0.7028717000503093, 0.7285275999456644, 0.4999983999878168, 0.5812804999295622, 0.7366752000525594, 0.9167927000671625, 0.5030302999075502, 0.8529912000522017, 0.5344527000561357, 0.5077382000163198, 0.4818950998596847, 0.3321519000455737, 0.5726457999553531, 0.44921039999462664, 0.5833052000962198, 0.49432280007749796, 0.4552736000623554, 1.134681300027296, 0.9863443002104759, 0.5876989001408219, 0.749864500015974, 0.6371601999271661, 0.5402194999624044, 0.6821664001327008, 0.6219442000146955, 0.6017696000635624, 0.6112367000896484, 0.5847813999280334, 1.268224700121209, 0.6836133999750018, 0.5388150999788195, 0.5057230999227613, 0.9005360999144614, 0.6669126998167485, 0.6677625000011176, 0.8004179000854492, 0.5496397998649627, 0.7376363000366837, 0.5845586999785155, 0.6667593999300152]",666,food,0,1,BR,1,2023-06-30_13h30.32.287,crystals,2022.2.4,30.017058702048097,
ice cream sundae 002.jpg,stimuli/food/,stimuli/food/ice cream sundae 002.jpg,0,0,0,0,0,49,49,35,,,,,125.03558839997277,125.75257650017738,8.48875,0.9324477999471128,50,"[0.5864532000850886, 0.6734186999965459, 0.5747257999610156, 0.38428670004941523, 0.5801436000037938, 0.3818310999777168, 0.5357550999615341, 0.5368288999889046, 0.5510331999976188, 0.7028651000000536, 0.7285207000095397, 0.49999179993756115, 0.5812738998793066, 0.7366690000053495, 0.9167863000184298, 0.5030241999775171, 0.8529848998878151, 0.5344402999617159, 0.5077323999721557, 0.48188869981095195, 0.33214360009878874, 0.5726385000161827, 0.4492046001832932, 0.5832992000505328, 0.4943166999146342, 0.45526680001057684, 1.1346752000972629, 0.98633630014956, 0.5876917000859976, 0.749858999857679, 0.6371535998769104, 0.5402130999136716, 0.6821552000474185, 0.621936900075525, 0.6017628000117838, 0.611229500034824, 0.5847742999903858, 1.2682136001531035, 0.683607499813661, 0.5388088999316096, 0.5057170998770744, 0.9005298998672515, 0.6669067998882383, 0.6677566000726074, 0.8004121000412852, 0.5496334999334067, 0.7376293998677284, 0.5845525998156518, 0.6667532999999821, 0.6035199000034481]","[0.5864595000166446, 0.6734251999296248, 0.5747322000097483, 0.3842927000951022, 0.5801566999871284, 0.3818384001497179, 0.5357609000056982, 0.5368351000361145, 0.5510409001726657, 0.7028717000503093, 0.7285275999456644, 0.4999983999878168, 0.5812804999295622, 0.7366752000525594, 0.9167927000671625, 0.5030302999075502, 0.8529912000522017, 0.5344527000561357, 0.5077382000163198, 0.4818950998596847, 0.3321519000455737, 0.5726457999553531, 0.44921039999462664, 0.5833052000962198, 0.49432280007749796, 0.4552736000623554, 1.134681300027296, 0.9863443002104759, 0.5876989001408219, 0.749864500015974, 0.6371601999271661, 0.5402194999624044, 0.6821664001327008, 0.6219442000146955, 0.6017696000635624, 0.6112367000896484, 0.5847813999280334, 1.268224700121209, 0.6836133999750018, 0.5388150999788195, 0.5057230999227613, 0.9005360999144614, 0.6669126998167485, 0.6677625000011176, 0.8004179000854492, 0.5496397998649627, 0.7376363000366837, 0.5845586999785155, 0.6667593999300152, 0.6035274998284876]",666,food,0,1,BR,1,2023-06-30_13h30.32.287,crystals,2022.2.4,30.017058702048097,
mini muffins.jpg,stimuli/food/,stimuli/food/mini muffins.jpg,0,0,0,0,0,50,50,41,,,,,126.91819320013747,127.618294400163,7.2775,0.6834118000697345,51,"[0.5864532000850886, 0.6734186999965459, 0.5747257999610156, 0.38428670004941523, 0.5801436000037938, 0.3818310999777168, 0.5357550999615341, 0.5368288999889046, 0.5510331999976188, 0.7028651000000536, 0.7285207000095397, 0.49999179993756115, 0.5812738998793066, 0.7366690000053495, 0.9167863000184298, 0.5030241999775171, 0.8529848998878151, 0.5344402999617159, 0.5077323999721557, 0.48188869981095195, 0.33214360009878874, 0.5726385000161827, 0.4492046001832932, 0.5832992000505328, 0.4943166999146342, 0.45526680001057684, 1.1346752000972629, 0.98633630014956, 0.5876917000859976, 0.749858999857679, 0.6371535998769104, 0.5402130999136716, 0.6821552000474185, 0.621936900075525, 0.6017628000117838, 0.611229500034824, 0.5847742999903858, 1.2682136001531035, 0.683607499813661, 0.5388088999316096, 0.5057170998770744, 0.9005298998672515, 0.6669067998882383, 0.6677566000726074, 0.8004121000412852, 0.5496334999334067, 0.7376293998677284, 0.5845525998156518, 0.6667532999999821, 0.6035199000034481, 0.5317865000106394]","[0.5864595000166446, 0.6734251999296248, 0.5747322000097483, 0.3842927000951022, 0.5801566999871284, 0.3818384001497179, 0.5357609000056982, 0.5368351000361145, 0.5510409001726657, 0.7028717000503093, 0.7285275999456644, 0.4999983999878168, 0.5812804999295622, 0.7366752000525594, 0.9167927000671625, 0.5030302999075502, 0.8529912000522017, 0.5344527000561357, 0.5077382000163198, 0.4818950998596847, 0.3321519000455737, 0.5726457999553531, 0.44921039999462664, 0.5833052000962198, 0.49432280007749796, 0.4552736000623554, 1.134681300027296, 0.9863443002104759, 0.5876989001408219, 0.749864500015974, 0.6371601999271661, 0.5402194999624044, 0.6821664001327008, 0.6219442000146955, 0.6017696000635624, 0.6112367000896484, 0.5847813999280334, 1.268224700121209, 0.6836133999750018, 0.5388150999788195, 0.5057230999227613, 0.9005360999144614, 0.6669126998167485, 0.6677625000011176, 0.8004179000854492, 0.5496397998649627, 0.7376363000366837, 0.5845586999785155, 0.6667593999300152, 0.6035274998284876, 0.5317927999421954]",666,food,0,1,BR,1,2023-06-30_13h30.32.287,crystals,2022.2.4,30.017058702048097,
cherry tomato.jpg,stimuli/food/,stimuli/food/cherry tomato.jpg,0,0,0,0,0,51,51,17,,,,,128.71256870008074,129.56903190002777,5.695,0.8027674001641572,52,"[0.5864532000850886, 0.6734186999965459, 0.5747257999610156, 0.38428670004941523, 0.5801436000037938, 0.3818310999777168, 0.5357550999615341, 0.5368288999889046, 0.5510331999976188, 0.7028651000000536, 0.7285207000095397, 0.49999179993756115, 0.5812738998793066, 0.7366690000053495, 0.9167863000184298, 0.5030241999775171, 0.8529848998878151, 0.5344402999617159, 0.5077323999721557, 0.48188869981095195, 0.33214360009878874, 0.5726385000161827, 0.4492046001832932, 0.5832992000505328, 0.4943166999146342, 0.45526680001057684, 1.1346752000972629, 0.98633630014956, 0.5876917000859976, 0.749858999857679, 0.6371535998769104, 0.5402130999136716, 0.6821552000474185, 0.621936900075525, 0.6017628000117838, 0.611229500034824, 0.5847742999903858, 1.2682136001531035, 0.683607499813661, 0.5388088999316096, 0.5057170998770744, 0.9005298998672515, 0.6669067998882383, 0.6677566000726074, 0.8004121000412852, 0.5496334999334067, 0.7376293998677284, 0.5845525998156518, 0.6667532999999821, 0.6035199000034481, 0.5317865000106394, 0.4176954999566078]","[0.5864595000166446, 0.6734251999296248, 0.5747322000097483, 0.3842927000951022, 0.5801566999871284, 0.3818384001497179, 0.5357609000056982, 0.5368351000361145, 0.5510409001726657, 0.7028717000503093, 0.7285275999456644, 0.4999983999878168, 0.5812804999295622, 0.7366752000525594, 0.9167927000671625, 0.5030302999075502, 0.8529912000522017, 0.5344527000561357, 0.5077382000163198, 0.4818950998596847, 0.3321519000455737, 0.5726457999553531, 0.44921039999462664, 0.5833052000962198, 0.49432280007749796, 0.4552736000623554, 1.134681300027296, 0.9863443002104759, 0.5876989001408219, 0.749864500015974, 0.6371601999271661, 0.5402194999624044, 0.6821664001327008, 0.6219442000146955, 0.6017696000635624, 0.6112367000896484, 0.5847813999280334, 1.268224700121209, 0.6836133999750018, 0.5388150999788195, 0.5057230999227613, 0.9005360999144614, 0.6669126998167485, 0.6677625000011176, 0.8004179000854492, 0.5496397998649627, 0.7376363000366837, 0.5845586999785155, 0.6667593999300152, 0.6035274998284876, 0.5317927999421954, 0.4177011998835951]",666,food,0,1,BR,1,2023-06-30_13h30.32.287,crystals,2022.2.4,30.017058702048097,
Pretzels.jpg,stimuli/food/,stimuli/food/Pretzels.jpg,0,0,0,0,0,52,52,49,,,,,130.52072260016575,131.99259200016968,6.73,1.4006078999955207,53,"[0.5864532000850886, 0.6734186999965459, 0.5747257999610156, 0.38428670004941523, 0.5801436000037938, 0.3818310999777168, 0.5357550999615341, 0.5368288999889046, 0.5510331999976188, 0.7028651000000536, 0.7285207000095397, 0.49999179993756115, 0.5812738998793066, 0.7366690000053495, 0.9167863000184298, 0.5030241999775171, 0.8529848998878151, 0.5344402999617159, 0.5077323999721557, 0.48188869981095195, 0.33214360009878874, 0.5726385000161827, 0.4492046001832932, 0.5832992000505328, 0.4943166999146342, 0.45526680001057684, 1.1346752000972629, 0.98633630014956, 0.5876917000859976, 0.749858999857679, 0.6371535998769104, 0.5402130999136716, 0.6821552000474185, 0.621936900075525, 0.6017628000117838, 0.611229500034824, 0.5847742999903858, 1.2682136001531035, 0.683607499813661, 0.5388088999316096, 0.5057170998770744, 0.9005298998672515, 0.6669067998882383, 0.6677566000726074, 0.8004121000412852, 0.5496334999334067, 0.7376293998677284, 0.5845525998156518, 0.6667532999999821, 0.6035199000034481, 0.5317865000106394, 0.4176954999566078, 0.5515212998725474]","[0.5864595000166446, 0.6734251999296248, 0.5747322000097483, 0.3842927000951022, 0.5801566999871284, 0.3818384001497179, 0.5357609000056982, 0.5368351000361145, 0.5510409001726657, 0.7028717000503093, 0.7285275999456644, 0.4999983999878168, 0.5812804999295622, 0.7366752000525594, 0.9167927000671625, 0.5030302999075502, 0.8529912000522017, 0.5344527000561357, 0.5077382000163198, 0.4818950998596847, 0.3321519000455737, 0.5726457999553531, 0.44921039999462664, 0.5833052000962198, 0.49432280007749796, 0.4552736000623554, 1.134681300027296, 0.9863443002104759, 0.5876989001408219, 0.749864500015974, 0.6371601999271661, 0.5402194999624044, 0.6821664001327008, 0.6219442000146955, 0.6017696000635624, 0.6112367000896484, 0.5847813999280334, 1.268224700121209, 0.6836133999750018, 0.5388150999788195, 0.5057230999227613, 0.9005360999144614, 0.6669126998167485, 0.6677625000011176, 0.8004179000854492, 0.5496397998649627, 0.7376363000366837, 0.5845586999785155, 0.6667593999300152, 0.6035274998284876, 0.5317927999421954, 0.4177011998835951, 0.5515276999212801]",666,food,0,1,BR,1,2023-06-30_13h30.32.287,crystals,2022.2.4,30.017058702048097,
Skim milk.jpg,stimuli/food/,stimuli/food/Skim milk.jpg,0,0,0,0,0,53,53,60,,,,,133.1042698000092,134.05089140008204,2.2600000000000002,0.9015809001866728,54,"[0.5864532000850886, 0.6734186999965459, 0.5747257999610156, 0.38428670004941523, 0.5801436000037938, 0.3818310999777168, 0.5357550999615341, 0.5368288999889046, 0.5510331999976188, 0.7028651000000536, 0.7285207000095397, 0.49999179993756115, 0.5812738998793066, 0.7366690000053495, 0.9167863000184298, 0.5030241999775171, 0.8529848998878151, 0.5344402999617159, 0.5077323999721557, 0.48188869981095195, 0.33214360009878874, 0.5726385000161827, 0.4492046001832932, 0.5832992000505328, 0.4943166999146342, 0.45526680001057684, 1.1346752000972629, 0.98633630014956, 0.5876917000859976, 0.749858999857679, 0.6371535998769104, 0.5402130999136716, 0.6821552000474185, 0.621936900075525, 0.6017628000117838, 0.611229500034824, 0.5847742999903858, 1.2682136001531035, 0.683607499813661, 0.5388088999316096, 0.5057170998770744, 0.9005298998672515, 0.6669067998882383, 0.6677566000726074, 0.8004121000412852, 0.5496334999334067, 0.7376293998677284, 0.5845525998156518, 0.6667532999999821, 0.6035199000034481, 0.5317865000106394, 0.4176954999566078, 0.5515212998725474, 0.6182987000793219]","[0.5864595000166446, 0.6734251999296248, 0.5747322000097483, 0.3842927000951022, 0.5801566999871284, 0.3818384001497179, 0.5357609000056982, 0.5368351000361145, 0.5510409001726657, 0.7028717000503093, 0.7285275999456644, 0.4999983999878168, 0.5812804999295622, 0.7366752000525594, 0.9167927000671625, 0.5030302999075502, 0.8529912000522017, 0.5344527000561357, 0.5077382000163198, 0.4818950998596847, 0.3321519000455737, 0.5726457999553531, 0.44921039999462664, 0.5833052000962198, 0.49432280007749796, 0.4552736000623554, 1.134681300027296, 0.9863443002104759, 0.5876989001408219, 0.749864500015974, 0.6371601999271661, 0.5402194999624044, 0.6821664001327008, 0.6219442000146955, 0.6017696000635624, 0.6112367000896484, 0.5847813999280334, 1.268224700121209, 0.6836133999750018, 0.5388150999788195, 0.5057230999227613, 0.9005360999144614, 0.6669126998167485, 0.6677625000011176, 0.8004179000854492, 0.5496397998649627, 0.7376363000366837, 0.5845586999785155, 0.6667593999300152, 0.6035274998284876, 0.5317927999421954, 0.4177011998835951, 0.5515276999212801, 0.6183045001234859]",666,food,0,1,BR,1,2023-06-30_13h30.32.287,crystals,2022.2.4,30.017058702048097,
seaweed.jpg,stimuli/food/,stimuli/food/seaweed.jpg,0,0,0,0,0,54,54,59,,,,,135.2525995001197,136.2526758001186,3.3437499999999996,0.9481482000555843,55,"[0.5864532000850886, 0.6734186999965459, 0.5747257999610156, 0.38428670004941523, 0.5801436000037938, 0.3818310999777168, 0.5357550999615341, 0.5368288999889046, 0.5510331999976188, 0.7028651000000536, 0.7285207000095397, 0.49999179993756115, 0.5812738998793066, 0.7366690000053495, 0.9167863000184298, 0.5030241999775171, 0.8529848998878151, 0.5344402999617159, 0.5077323999721557, 0.48188869981095195, 0.33214360009878874, 0.5726385000161827, 0.4492046001832932, 0.5832992000505328, 0.4943166999146342, 0.45526680001057684, 1.1346752000972629, 0.98633630014956, 0.5876917000859976, 0.749858999857679, 0.6371535998769104, 0.5402130999136716, 0.6821552000474185, 0.621936900075525, 0.6017628000117838, 0.611229500034824, 0.5847742999903858, 1.2682136001531035, 0.683607499813661, 0.5388088999316096, 0.5057170998770744, 0.9005298998672515, 0.6669067998882383, 0.6677566000726074, 0.8004121000412852, 0.5496334999334067, 0.7376293998677284, 0.5845525998156518, 0.6667532999999821, 0.6035199000034481, 0.5317865000106394, 0.4176954999566078, 0.5515212998725474, 0.6182987000793219, 0.5504987998865545]","[0.5864595000166446, 0.6734251999296248, 0.5747322000097483, 0.3842927000951022, 0.5801566999871284, 0.3818384001497179, 0.5357609000056982, 0.5368351000361145, 0.5510409001726657, 0.7028717000503093, 0.7285275999456644, 0.4999983999878168, 0.5812804999295622, 0.7366752000525594, 0.9167927000671625, 0.5030302999075502, 0.8529912000522017, 0.5344527000561357, 0.5077382000163198, 0.4818950998596847, 0.3321519000455737, 0.5726457999553531, 0.44921039999462664, 0.5833052000962198, 0.49432280007749796, 0.4552736000623554, 1.134681300027296, 0.9863443002104759, 0.5876989001408219, 0.749864500015974, 0.6371601999271661, 0.5402194999624044, 0.6821664001327008, 0.6219442000146955, 0.6017696000635624, 0.6112367000896484, 0.5847813999280334, 1.268224700121209, 0.6836133999750018, 0.5388150999788195, 0.5057230999227613, 0.9005360999144614, 0.6669126998167485, 0.6677625000011176, 0.8004179000854492, 0.5496397998649627, 0.7376363000366837, 0.5845586999785155, 0.6667593999300152, 0.6035274998284876, 0.5317927999421954, 0.4177011998835951, 0.5515276999212801, 0.6183045001234859, 0.5505048998165876]",666,food,0,1,BR,1,2023-06-30_13h30.32.287,crystals,2022.2.4,30.017058702048097,
mashed potato.jpg,stimuli/food/,stimuli/food/mashed potato.jpg,0,0,0,0,0,55,55,40,,,,,137.35283920005895,138.15010640001856,4.494999999999999,0.7861323000397533,56,"[0.5864532000850886, 0.6734186999965459, 0.5747257999610156, 0.38428670004941523, 0.5801436000037938, 0.3818310999777168, 0.5357550999615341, 0.5368288999889046, 0.5510331999976188, 0.7028651000000536, 0.7285207000095397, 0.49999179993756115, 0.5812738998793066, 0.7366690000053495, 0.9167863000184298, 0.5030241999775171, 0.8529848998878151, 0.5344402999617159, 0.5077323999721557, 0.48188869981095195, 0.33214360009878874, 0.5726385000161827, 0.4492046001832932, 0.5832992000505328, 0.4943166999146342, 0.45526680001057684, 1.1346752000972629, 0.98633630014956, 0.5876917000859976, 0.749858999857679, 0.6371535998769104, 0.5402130999136716, 0.6821552000474185, 0.621936900075525, 0.6017628000117838, 0.611229500034824, 0.5847742999903858, 1.2682136001531035, 0.683607499813661, 0.5388088999316096, 0.5057170998770744, 0.9005298998672515, 0.6669067998882383, 0.6677566000726074, 0.8004121000412852, 0.5496334999334067, 0.7376293998677284, 0.5845525998156518, 0.6667532999999821, 0.6035199000034481, 0.5317865000106394, 0.4176954999566078, 0.5515212998725474, 0.6182987000793219, 0.5504987998865545, 0.5797677000518888]","[0.5864595000166446, 0.6734251999296248, 0.5747322000097483, 0.3842927000951022, 0.5801566999871284, 0.3818384001497179, 0.5357609000056982, 0.5368351000361145, 0.5510409001726657, 0.7028717000503093, 0.7285275999456644, 0.4999983999878168, 0.5812804999295622, 0.7366752000525594, 0.9167927000671625, 0.5030302999075502, 0.8529912000522017, 0.5344527000561357, 0.5077382000163198, 0.4818950998596847, 0.3321519000455737, 0.5726457999553531, 0.44921039999462664, 0.5833052000962198, 0.49432280007749796, 0.4552736000623554, 1.134681300027296, 0.9863443002104759, 0.5876989001408219, 0.749864500015974, 0.6371601999271661, 0.5402194999624044, 0.6821664001327008, 0.6219442000146955, 0.6017696000635624, 0.6112367000896484, 0.5847813999280334, 1.268224700121209, 0.6836133999750018, 0.5388150999788195, 0.5057230999227613, 0.9005360999144614, 0.6669126998167485, 0.6677625000011176, 0.8004179000854492, 0.5496397998649627, 0.7376363000366837, 0.5845586999785155, 0.6667593999300152, 0.6035274998284876, 0.5317927999421954, 0.4177011998835951, 0.5515276999212801, 0.6183045001234859, 0.5505048998165876, 0.5797729999758303]",666,food,0,1,BR,1,2023-06-30_13h30.32.287,crystals,2022.2.4,30.017058702048097,
bagel and cc.jpg,stimuli/food/,stimuli/food/bagel and cc.jpg,0,0,0,0,0,56,56,6,,,,,139.36919250013307,140.69446220016107,1.6975000000000002,1.286122899968177,57,"[0.5864532000850886, 0.6734186999965459, 0.5747257999610156, 0.38428670004941523, 0.5801436000037938, 0.3818310999777168, 0.5357550999615341, 0.5368288999889046, 0.5510331999976188, 0.7028651000000536, 0.7285207000095397, 0.49999179993756115, 0.5812738998793066, 0.7366690000053495, 0.9167863000184298, 0.5030241999775171, 0.8529848998878151, 0.5344402999617159, 0.5077323999721557, 0.48188869981095195, 0.33214360009878874, 0.5726385000161827, 0.4492046001832932, 0.5832992000505328, 0.4943166999146342, 0.45526680001057684, 1.1346752000972629, 0.98633630014956, 0.5876917000859976, 0.749858999857679, 0.6371535998769104, 0.5402130999136716, 0.6821552000474185, 0.621936900075525, 0.6017628000117838, 0.611229500034824, 0.5847742999903858, 1.2682136001531035, 0.683607499813661, 0.5388088999316096, 0.5057170998770744, 0.9005298998672515, 0.6669067998882383, 0.6677566000726074, 0.8004121000412852, 0.5496334999334067, 0.7376293998677284, 0.5845525998156518, 0.6667532999999821, 0.6035199000034481, 0.5317865000106394, 0.4176954999566078, 0.5515212998725474, 0.6182987000793219, 0.5504987998865545, 0.5797677000518888, 0.8674166998825967]","[0.5864595000166446, 0.6734251999296248, 0.5747322000097483, 0.3842927000951022, 0.5801566999871284, 0.3818384001497179, 0.5357609000056982, 0.5368351000361145, 0.5510409001726657, 0.7028717000503093, 0.7285275999456644, 0.4999983999878168, 0.5812804999295622, 0.7366752000525594, 0.9167927000671625, 0.5030302999075502, 0.8529912000522017, 0.5344527000561357, 0.5077382000163198, 0.4818950998596847, 0.3321519000455737, 0.5726457999553531, 0.44921039999462664, 0.5833052000962198, 0.49432280007749796, 0.4552736000623554, 1.134681300027296, 0.9863443002104759, 0.5876989001408219, 0.749864500015974, 0.6371601999271661, 0.5402194999624044, 0.6821664001327008, 0.6219442000146955, 0.6017696000635624, 0.6112367000896484, 0.5847813999280334, 1.268224700121209, 0.6836133999750018, 0.5388150999788195, 0.5057230999227613, 0.9005360999144614, 0.6669126998167485, 0.6677625000011176, 0.8004179000854492, 0.5496397998649627, 0.7376363000366837, 0.5845586999785155, 0.6667593999300152, 0.6035274998284876, 0.5317927999421954, 0.4177011998835951, 0.5515276999212801, 0.6183045001234859, 0.5505048998165876, 0.5797729999758303, 0.8674222000408918]",666,food,0,1,BR,1,2023-06-30_13h30.32.287,crystals,2022.2.4,30.017058702048097,
cherries.jpg,stimuli/food/,stimuli/food/cherries.jpg,0,0,0,0,0,57,57,16,,,,,142.13610600004904,142.85269970004447,3.145,0.665106900036335,58,"[0.5864532000850886, 0.6734186999965459, 0.5747257999610156, 0.38428670004941523, 0.5801436000037938, 0.3818310999777168, 0.5357550999615341, 0.5368288999889046, 0.5510331999976188, 0.7028651000000536, 0.7285207000095397, 0.49999179993756115, 0.5812738998793066, 0.7366690000053495, 0.9167863000184298, 0.5030241999775171, 0.8529848998878151, 0.5344402999617159, 0.5077323999721557, 0.48188869981095195, 0.33214360009878874, 0.5726385000161827, 0.4492046001832932, 0.5832992000505328, 0.4943166999146342, 0.45526680001057684, 1.1346752000972629, 0.98633630014956, 0.5876917000859976, 0.749858999857679, 0.6371535998769104, 0.5402130999136716, 0.6821552000474185, 0.621936900075525, 0.6017628000117838, 0.611229500034824, 0.5847742999903858, 1.2682136001531035, 0.683607499813661, 0.5388088999316096, 0.5057170998770744, 0.9005298998672515, 0.6669067998882383, 0.6677566000726074, 0.8004121000412852, 0.5496334999334067, 0.7376293998677284, 0.5845525998156518, 0.6667532999999821, 0.6035199000034481, 0.5317865000106394, 0.4176954999566078, 0.5515212998725474, 0.6182987000793219, 0.5504987998865545, 0.5797677000518888, 0.8674166998825967, 0.6356663000769913]","[0.5864595000166446, 0.6734251999296248, 0.5747322000097483, 0.3842927000951022, 0.5801566999871284, 0.3818384001497179, 0.5357609000056982, 0.5368351000361145, 0.5510409001726657, 0.7028717000503093, 0.7285275999456644, 0.4999983999878168, 0.5812804999295622, 0.7366752000525594, 0.9167927000671625, 0.5030302999075502, 0.8529912000522017, 0.5344527000561357, 0.5077382000163198, 0.4818950998596847, 0.3321519000455737, 0.5726457999553531, 0.44921039999462664, 0.5833052000962198, 0.49432280007749796, 0.4552736000623554, 1.134681300027296, 0.9863443002104759, 0.5876989001408219, 0.749864500015974, 0.6371601999271661, 0.5402194999624044, 0.6821664001327008, 0.6219442000146955, 0.6017696000635624, 0.6112367000896484, 0.5847813999280334, 1.268224700121209, 0.6836133999750018, 0.5388150999788195, 0.5057230999227613, 0.9005360999144614, 0.6669126998167485, 0.6677625000011176, 0.8004179000854492, 0.5496397998649627, 0.7376363000366837, 0.5845586999785155, 0.6667593999300152, 0.6035274998284876, 0.5317927999421954, 0.4177011998835951, 0.5515276999212801, 0.6183045001234859, 0.5505048998165876, 0.5797729999758303, 0.8674222000408918, 0.6356724000070244]",666,food,0,1,BR,1,2023-06-30_13h30.32.287,crystals,2022.2.4,30.017058702048097,
banana.jpg,stimuli/food/,stimuli/food/banana.jpg,0,0,0,0,0,58,58,10,,,,,144.03607819997706,144.70247320015915,9.411249999999999,0.6165181999094784,59,"[0.5864532000850886, 0.6734186999965459, 0.5747257999610156, 0.38428670004941523, 0.5801436000037938, 0.3818310999777168, 0.5357550999615341, 0.5368288999889046, 0.5510331999976188, 0.7028651000000536, 0.7285207000095397, 0.49999179993756115, 0.5812738998793066, 0.7366690000053495, 0.9167863000184298, 0.5030241999775171, 0.8529848998878151, 0.5344402999617159, 0.5077323999721557, 0.48188869981095195, 0.33214360009878874, 0.5726385000161827, 0.4492046001832932, 0.5832992000505328, 0.4943166999146342, 0.45526680001057684, 1.1346752000972629, 0.98633630014956, 0.5876917000859976, 0.749858999857679, 0.6371535998769104, 0.5402130999136716, 0.6821552000474185, 0.621936900075525, 0.6017628000117838, 0.611229500034824, 0.5847742999903858, 1.2682136001531035, 0.683607499813661, 0.5388088999316096, 0.5057170998770744, 0.9005298998672515, 0.6669067998882383, 0.6677566000726074, 0.8004121000412852, 0.5496334999334067, 0.7376293998677284, 0.5845525998156518, 0.6667532999999821, 0.6035199000034481, 0.5317865000106394, 0.4176954999566078, 0.5515212998725474, 0.6182987000793219, 0.5504987998865545, 0.5797677000518888, 0.8674166998825967, 0.6356663000769913, 0.5008201999589801]","[0.5864595000166446, 0.6734251999296248, 0.5747322000097483, 0.3842927000951022, 0.5801566999871284, 0.3818384001497179, 0.5357609000056982, 0.5368351000361145, 0.5510409001726657, 0.7028717000503093, 0.7285275999456644, 0.4999983999878168, 0.5812804999295622, 0.7366752000525594, 0.9167927000671625, 0.5030302999075502, 0.8529912000522017, 0.5344527000561357, 0.5077382000163198, 0.4818950998596847, 0.3321519000455737, 0.5726457999553531, 0.44921039999462664, 0.5833052000962198, 0.49432280007749796, 0.4552736000623554, 1.134681300027296, 0.9863443002104759, 0.5876989001408219, 0.749864500015974, 0.6371601999271661, 0.5402194999624044, 0.6821664001327008, 0.6219442000146955, 0.6017696000635624, 0.6112367000896484, 0.5847813999280334, 1.268224700121209, 0.6836133999750018, 0.5388150999788195, 0.5057230999227613, 0.9005360999144614, 0.6669126998167485, 0.6677625000011176, 0.8004179000854492, 0.5496397998649627, 0.7376363000366837, 0.5845586999785155, 0.6667593999300152, 0.6035274998284876, 0.5317927999421954, 0.4177011998835951, 0.5515276999212801, 0.6183045001234859, 0.5505048998165876, 0.5797729999758303, 0.8674222000408918, 0.6356724000070244, 0.5008273001294583]",666,food,0,1,BR,1,2023-06-30_13h30.32.287,crystals,2022.2.4,30.017058702048097,
grilled cheese.jpg,stimuli/food/,stimuli/food/grilled cheese.jpg,0,0,0,0,0,59,59,31,,,,,145.83618270000443,146.50289690005593,7.4725,0.6817756998352706,60,"[0.5864532000850886, 0.6734186999965459, 0.5747257999610156, 0.38428670004941523, 0.5801436000037938, 0.3818310999777168, 0.5357550999615341, 0.5368288999889046, 0.5510331999976188, 0.7028651000000536, 0.7285207000095397, 0.49999179993756115, 0.5812738998793066, 0.7366690000053495, 0.9167863000184298, 0.5030241999775171, 0.8529848998878151, 0.5344402999617159, 0.5077323999721557, 0.48188869981095195, 0.33214360009878874, 0.5726385000161827, 0.4492046001832932, 0.5832992000505328, 0.4943166999146342, 0.45526680001057684, 1.1346752000972629, 0.98633630014956, 0.5876917000859976, 0.749858999857679, 0.6371535998769104, 0.5402130999136716, 0.6821552000474185, 0.621936900075525, 0.6017628000117838, 0.611229500034824, 0.5847742999903858, 1.2682136001531035, 0.683607499813661, 0.5388088999316096, 0.5057170998770744, 0.9005298998672515, 0.6669067998882383, 0.6677566000726074, 0.8004121000412852, 0.5496334999334067, 0.7376293998677284, 0.5845525998156518, 0.6667532999999821, 0.6035199000034481, 0.5317865000106394, 0.4176954999566078, 0.5515212998725474, 0.6182987000793219, 0.5504987998865545, 0.5797677000518888, 0.8674166998825967, 0.6356663000769913, 0.5008201999589801, 0.5675658998079598]","[0.5864595000166446, 0.6734251999296248, 0.5747322000097483, 0.3842927000951022, 0.5801566999871284, 0.3818384001497179, 0.5357609000056982, 0.5368351000361145, 0.5510409001726657, 0.7028717000503093, 0.7285275999456644, 0.4999983999878168, 0.5812804999295622, 0.7366752000525594, 0.9167927000671625, 0.5030302999075502, 0.8529912000522017, 0.5344527000561357, 0.5077382000163198, 0.4818950998596847, 0.3321519000455737, 0.5726457999553531, 0.44921039999462664, 0.5833052000962198, 0.49432280007749796, 0.4552736000623554, 1.134681300027296, 0.9863443002104759, 0.5876989001408219, 0.749864500015974, 0.6371601999271661, 0.5402194999624044, 0.6821664001327008, 0.6219442000146955, 0.6017696000635624, 0.6112367000896484, 0.5847813999280334, 1.268224700121209, 0.6836133999750018, 0.5388150999788195, 0.5057230999227613, 0.9005360999144614, 0.6669126998167485, 0.6677625000011176, 0.8004179000854492, 0.5496397998649627, 0.7376363000366837, 0.5845586999785155, 0.6667593999300152, 0.6035274998284876, 0.5317927999421954, 0.4177011998835951, 0.5515276999212801, 0.6183045001234859, 0.5505048998165876, 0.5797729999758303, 0.8674222000408918, 0.6356724000070244, 0.5008273001294583, 0.5675724998582155]",666,food,0,1,BR,1,2023-06-30_13h30.32.287,crystals,2022.2.4,30.017058702048097,
broccoli cauliflower.jpg,stimuli/food/,stimuli/food/broccoli cauliflower.jpg,0,0,0,0,0,60,60,11,,,,,147.6061927000992,148.31583910016343,6.20875,0.6374714998528361,61,"[0.5864532000850886, 0.6734186999965459, 0.5747257999610156, 0.38428670004941523, 0.5801436000037938, 0.3818310999777168, 0.5357550999615341, 0.5368288999889046, 0.5510331999976188, 0.7028651000000536, 0.7285207000095397, 0.49999179993756115, 0.5812738998793066, 0.7366690000053495, 0.9167863000184298, 0.5030241999775171, 0.8529848998878151, 0.5344402999617159, 0.5077323999721557, 0.48188869981095195, 0.33214360009878874, 0.5726385000161827, 0.4492046001832932, 0.5832992000505328, 0.4943166999146342, 0.45526680001057684, 1.1346752000972629, 0.98633630014956, 0.5876917000859976, 0.749858999857679, 0.6371535998769104, 0.5402130999136716, 0.6821552000474185, 0.621936900075525, 0.6017628000117838, 0.611229500034824, 0.5847742999903858, 1.2682136001531035, 0.683607499813661, 0.5388088999316096, 0.5057170998770744, 0.9005298998672515, 0.6669067998882383, 0.6677566000726074, 0.8004121000412852, 0.5496334999334067, 0.7376293998677284, 0.5845525998156518, 0.6667532999999821, 0.6035199000034481, 0.5317865000106394, 0.4176954999566078, 0.5515212998725474, 0.6182987000793219, 0.5504987998865545, 0.5797677000518888, 0.8674166998825967, 0.6356663000769913, 0.5008201999589801, 0.5675658998079598, 1.3959653000347316]","[0.5864595000166446, 0.6734251999296248, 0.5747322000097483, 0.3842927000951022, 0.5801566999871284, 0.3818384001497179, 0.5357609000056982, 0.5368351000361145, 0.5510409001726657, 0.7028717000503093, 0.7285275999456644, 0.4999983999878168, 0.5812804999295622, 0.7366752000525594, 0.9167927000671625, 0.5030302999075502, 0.8529912000522017, 0.5344527000561357, 0.5077382000163198, 0.4818950998596847, 0.3321519000455737, 0.5726457999553531, 0.44921039999462664, 0.5833052000962198, 0.49432280007749796, 0.4552736000623554, 1.134681300027296, 0.9863443002104759, 0.5876989001408219, 0.749864500015974, 0.6371601999271661, 0.5402194999624044, 0.6821664001327008, 0.6219442000146955, 0.6017696000635624, 0.6112367000896484, 0.5847813999280334, 1.268224700121209, 0.6836133999750018, 0.5388150999788195, 0.5057230999227613, 0.9005360999144614, 0.6669126998167485, 0.6677625000011176, 0.8004179000854492, 0.5496397998649627, 0.7376363000366837, 0.5845586999785155, 0.6667593999300152, 0.6035274998284876, 0.5317927999421954, 0.4177011998835951, 0.5515276999212801, 0.6183045001234859, 0.5505048998165876, 0.5797729999758303, 0.8674222000408918, 0.6356724000070244, 0.5008273001294583, 0.5675724998582155, 1.3959719000849873]",666,food,0,1,BR,1,2023-06-30_13h30.32.287,crystals,2022.2.4,30.017058702048097,
baby cheese.jpg,stimuli/food/,stimuli/food/baby cheese.jpg,0,0,0,0,0,61,61,5,,,,,150.26953300018795,151.01972900005057,9.5725,0.7324570000637323,62,"[0.5864532000850886, 0.6734186999965459, 0.5747257999610156, 0.38428670004941523, 0.5801436000037938, 0.3818310999777168, 0.5357550999615341, 0.5368288999889046, 0.5510331999976188, 0.7028651000000536, 0.7285207000095397, 0.49999179993756115, 0.5812738998793066, 0.7366690000053495, 0.9167863000184298, 0.5030241999775171, 0.8529848998878151, 0.5344402999617159, 0.5077323999721557, 0.48188869981095195, 0.33214360009878874, 0.5726385000161827, 0.4492046001832932, 0.5832992000505328, 0.4943166999146342, 0.45526680001057684, 1.1346752000972629, 0.98633630014956, 0.5876917000859976, 0.749858999857679, 0.6371535998769104, 0.5402130999136716, 0.6821552000474185, 0.621936900075525, 0.6017628000117838, 0.611229500034824, 0.5847742999903858, 1.2682136001531035, 0.683607499813661, 0.5388088999316096, 0.5057170998770744, 0.9005298998672515, 0.6669067998882383, 0.6677566000726074, 0.8004121000412852, 0.5496334999334067, 0.7376293998677284, 0.5845525998156518, 0.6667532999999821, 0.6035199000034481, 0.5317865000106394, 0.4176954999566078, 0.5515212998725474, 0.6182987000793219, 0.5504987998865545, 0.5797677000518888, 0.8674166998825967, 0.6356663000769913, 0.5008201999589801, 0.5675658998079598, 1.3959653000347316, 0.6886777000036091]","[0.5864595000166446, 0.6734251999296248, 0.5747322000097483, 0.3842927000951022, 0.5801566999871284, 0.3818384001497179, 0.5357609000056982, 0.5368351000361145, 0.5510409001726657, 0.7028717000503093, 0.7285275999456644, 0.4999983999878168, 0.5812804999295622, 0.7366752000525594, 0.9167927000671625, 0.5030302999075502, 0.8529912000522017, 0.5344527000561357, 0.5077382000163198, 0.4818950998596847, 0.3321519000455737, 0.5726457999553531, 0.44921039999462664, 0.5833052000962198, 0.49432280007749796, 0.4552736000623554, 1.134681300027296, 0.9863443002104759, 0.5876989001408219, 0.749864500015974, 0.6371601999271661, 0.5402194999624044, 0.6821664001327008, 0.6219442000146955, 0.6017696000635624, 0.6112367000896484, 0.5847813999280334, 1.268224700121209, 0.6836133999750018, 0.5388150999788195, 0.5057230999227613, 0.9005360999144614, 0.6669126998167485, 0.6677625000011176, 0.8004179000854492, 0.5496397998649627, 0.7376363000366837, 0.5845586999785155, 0.6667593999300152, 0.6035274998284876, 0.5317927999421954, 0.4177011998835951, 0.5515276999212801, 0.6183045001234859, 0.5505048998165876, 0.5797729999758303, 0.8674222000408918, 0.6356724000070244, 0.5008273001294583, 0.5675724998582155, 1.3959719000849873, 0.6886843999382108]",666,food,0,1,BR,1,2023-06-30_13h30.32.287,crystals,2022.2.4,30.017058702048097,
Whole milk.jpg,stimuli/food/,stimuli/food/Whole milk.jpg,0,0,0,0,0,62,62,72,,,,,152.2530102999881,152.93637340003625,7.68625,0.6315341000445187,63,"[0.5864532000850886, 0.6734186999965459, 0.5747257999610156, 0.38428670004941523, 0.5801436000037938, 0.3818310999777168, 0.5357550999615341, 0.5368288999889046, 0.5510331999976188, 0.7028651000000536, 0.7285207000095397, 0.49999179993756115, 0.5812738998793066, 0.7366690000053495, 0.9167863000184298, 0.5030241999775171, 0.8529848998878151, 0.5344402999617159, 0.5077323999721557, 0.48188869981095195, 0.33214360009878874, 0.5726385000161827, 0.4492046001832932, 0.5832992000505328, 0.4943166999146342, 0.45526680001057684, 1.1346752000972629, 0.98633630014956, 0.5876917000859976, 0.749858999857679, 0.6371535998769104, 0.5402130999136716, 0.6821552000474185, 0.621936900075525, 0.6017628000117838, 0.611229500034824, 0.5847742999903858, 1.2682136001531035, 0.683607499813661, 0.5388088999316096, 0.5057170998770744, 0.9005298998672515, 0.6669067998882383, 0.6677566000726074, 0.8004121000412852, 0.5496334999334067, 0.7376293998677284, 0.5845525998156518, 0.6667532999999821, 0.6035199000034481, 0.5317865000106394, 0.4176954999566078, 0.5515212998725474, 0.6182987000793219, 0.5504987998865545, 0.5797677000518888, 0.8674166998825967, 0.6356663000769913, 0.5008201999589801, 0.5675658998079598, 1.3959653000347316, 0.6886777000036091, 1.635077300015837]","[0.5864595000166446, 0.6734251999296248, 0.5747322000097483, 0.3842927000951022, 0.5801566999871284, 0.3818384001497179, 0.5357609000056982, 0.5368351000361145, 0.5510409001726657, 0.7028717000503093, 0.7285275999456644, 0.4999983999878168, 0.5812804999295622, 0.7366752000525594, 0.9167927000671625, 0.5030302999075502, 0.8529912000522017, 0.5344527000561357, 0.5077382000163198, 0.4818950998596847, 0.3321519000455737, 0.5726457999553531, 0.44921039999462664, 0.5833052000962198, 0.49432280007749796, 0.4552736000623554, 1.134681300027296, 0.9863443002104759, 0.5876989001408219, 0.749864500015974, 0.6371601999271661, 0.5402194999624044, 0.6821664001327008, 0.6219442000146955, 0.6017696000635624, 0.6112367000896484, 0.5847813999280334, 1.268224700121209, 0.6836133999750018, 0.5388150999788195, 0.5057230999227613, 0.9005360999144614, 0.6669126998167485, 0.6677625000011176, 0.8004179000854492, 0.5496397998649627, 0.7376363000366837, 0.5845586999785155, 0.6667593999300152, 0.6035274998284876, 0.5317927999421954, 0.4177011998835951, 0.5515276999212801, 0.6183045001234859, 0.5505048998165876, 0.5797729999758303, 0.8674222000408918, 0.6356724000070244, 0.5008273001294583, 0.5675724998582155, 1.3959719000849873, 0.6886843999382108, 1.6350834001787007]",666,food,0,1,BR,1,2023-06-30_13h30.32.287,crystals,2022.2.4,30.017058702048097,
Tribe humus pita.jpg,stimuli/food/,stimuli/food/Tribe humus pita.jpg,0,0,0,0,0,63,63,70,,,,,155.132498400053,156.35848799999803,8.6125,1.1854447000660002,64,"[0.5864532000850886, 0.6734186999965459, 0.5747257999610156, 0.38428670004941523, 0.5801436000037938, 0.3818310999777168, 0.5357550999615341, 0.5368288999889046, 0.5510331999976188, 0.7028651000000536, 0.7285207000095397, 0.49999179993756115, 0.5812738998793066, 0.7366690000053495, 0.9167863000184298, 0.5030241999775171, 0.8529848998878151, 0.5344402999617159, 0.5077323999721557, 0.48188869981095195, 0.33214360009878874, 0.5726385000161827, 0.4492046001832932, 0.5832992000505328, 0.4943166999146342, 0.45526680001057684, 1.1346752000972629, 0.98633630014956, 0.5876917000859976, 0.749858999857679, 0.6371535998769104, 0.5402130999136716, 0.6821552000474185, 0.621936900075525, 0.6017628000117838, 0.611229500034824, 0.5847742999903858, 1.2682136001531035, 0.683607499813661, 0.5388088999316096, 0.5057170998770744, 0.9005298998672515, 0.6669067998882383, 0.6677566000726074, 0.8004121000412852, 0.5496334999334067, 0.7376293998677284, 0.5845525998156518, 0.6667532999999821, 0.6035199000034481, 0.5317865000106394, 0.4176954999566078, 0.5515212998725474, 0.6182987000793219, 0.5504987998865545, 0.5797677000518888, 0.8674166998825967, 0.6356663000769913, 0.5008201999589801, 0.5675658998079598, 1.3959653000347316, 0.6886777000036091, 1.635077300015837, 1.0049246000126004]","[0.5864595000166446, 0.6734251999296248, 0.5747322000097483, 0.3842927000951022, 0.5801566999871284, 0.3818384001497179, 0.5357609000056982, 0.5368351000361145, 0.5510409001726657, 0.7028717000503093, 0.7285275999456644, 0.4999983999878168, 0.5812804999295622, 0.7366752000525594, 0.9167927000671625, 0.5030302999075502, 0.8529912000522017, 0.5344527000561357, 0.5077382000163198, 0.4818950998596847, 0.3321519000455737, 0.5726457999553531, 0.44921039999462664, 0.5833052000962198, 0.49432280007749796, 0.4552736000623554, 1.134681300027296, 0.9863443002104759, 0.5876989001408219, 0.749864500015974, 0.6371601999271661, 0.5402194999624044, 0.6821664001327008, 0.6219442000146955, 0.6017696000635624, 0.6112367000896484, 0.5847813999280334, 1.268224700121209, 0.6836133999750018, 0.5388150999788195, 0.5057230999227613, 0.9005360999144614, 0.6669126998167485, 0.6677625000011176, 0.8004179000854492, 0.5496397998649627, 0.7376363000366837, 0.5845586999785155, 0.6667593999300152, 0.6035274998284876, 0.5317927999421954, 0.4177011998835951, 0.5515276999212801, 0.6183045001234859, 0.5505048998165876, 0.5797729999758303, 0.8674222000408918, 0.6356724000070244, 0.5008273001294583, 0.5675724998582155, 1.3959719000849873, 0.6886843999382108, 1.6350834001787007, 1.0049310999456793]",666,food,0,1,BR,1,2023-06-30_13h30.32.287,crystals,2022.2.4,30.017058702048097,
